Timestamp,Time,Roll,Pitch,Yaw,Magnetic_Field_X,Magnetic_Field_Y,Magnetic_Field_Z,Angular_Rate_X,Angular_Rate_Y,Angular_Rate_Z,Acceleration_X,Acceleration_Y,Acceleration_Z
1764074529475306395,2025-11-25 18:12:09.464,-1.359000,1.775000,37.359000,0.279700,-0.165200,0.154100,0.316000,0.244000,-10.097000,-0.000250,-0.000296,0.003177
1764074529487081007,2025-11-25 18:12:09.480,-1.358000,1.776000,37.367000,0.280700,-0.161400,0.153100,0.313000,0.239000,-10.105000,0.000705,-0.000548,0.004654
1764074529503696840,2025-11-25 18:12:09.496,-1.359000,1.777000,37.370000,0.281600,-0.160500,0.149900,0.337000,0.253000,-10.135000,-0.000507,0.000029,0.003966
1764074529514526988,2025-11-25 18:12:09.510,-1.360000,1.778000,37.373000,0.277900,-0.165200,0.153000,0.281000,0.244000,-10.114000,-0.000059,0.000549,0.004311
1764074529526845821,2025-11-25 18:12:09.522,-1.359000,1.777000,37.380000,0.277000,-0.164200,0.150800,0.324000,0.220000,-10.075000,-0.000341,-0.000847,0.006018
1764074529536754395,2025-11-25 18:12:09.534,-1.359000,1.774000,37.385000,0.282400,-0.164300,0.150000,0.321000,0.257000,-10.112000,-0.000186,0.000031,0.003555
1764074529546058081,2025-11-25 18:12:09.543,-1.358000,1.774000,37.391000,0.280600,-0.164300,0.148800,0.290000,0.231000,-10.053000,0.000358,-0.001637,0.003490
1764074529560829432,2025-11-25 18:12:09.557,-1.359000,1.771000,37.399000,0.280500,-0.168200,0.151000,0.337000,0.240000,-10.103000,-0.000465,-0.002780,0.006397
1764074529589285988,2025-11-25 18:12:09.583,-1.360000,1.768000,37.405000,0.280600,-0.164300,0.155200,0.270000,0.268000,-10.126000,-0.000732,-0.002134,0.004240
1764074529613259210,2025-11-25 18:12:09.610,-1.361000,1.764000,37.412000,0.278700,-0.169100,0.150900,0.324000,0.226000,-10.081000,-0.001147,-0.002554,0.004120
1764074529641151155,2025-11-25 18:12:09.638,-1.361000,1.760000,37.420000,0.279700,-0.167200,0.153100,0.323000,0.245000,-10.103000,0.000126,-0.002295,0.005118
1764074529664008006,2025-11-25 18:12:09.660,-1.361000,1.756000,37.426000,0.277800,-0.169100,0.149800,0.291000,0.267000,-10.084000,-0.000005,-0.002214,0.005120
1764074529685881673,2025-11-25 18:12:09.683,-1.362000,1.752000,37.434000,0.279600,-0.168100,0.152000,0.318000,0.241000,-10.133000,0.000406,-0.003209,0.003751
1764074529713026821,2025-11-25 18:12:09.709,-1.362000,1.749000,37.442000,0.279800,-0.162400,0.150900,0.303000,0.253000,-10.102000,-0.000037,-0.001464,0.006280
1764074529736660895,2025-11-25 18:12:09.732,-1.362000,1.747000,37.447000,0.279600,-0.167200,0.147700,0.304000,0.243000,-10.144000,-0.000195,-0.001266,0.003489
1764074529760808321,2025-11-25 18:12:09.758,-1.363000,1.744000,37.451000,0.280600,-0.167200,0.149900,0.295000,0.231000,-10.130000,-0.001355,-0.001633,0.003861
1764074529785509303,2025-11-25 18:12:09.782,-1.363000,1.743000,37.458000,0.279800,-0.161400,0.148800,0.270000,0.260000,-10.144000,-0.000245,-0.000924,0.004669
1764074529813706303,2025-11-25 18:12:09.810,-1.363000,1.742000,37.466000,0.281500,-0.165300,0.145700,0.333000,0.265000,-10.128000,0.000471,-0.000420,0.004040
1764074529843159914,2025-11-25 18:12:09.837,-1.363000,1.742000,37.474000,0.280600,-0.167200,0.151000,0.288000,0.221000,-10.161000,-0.000141,-0.000962,0.005786
1764074529862526636,2025-11-25 18:12:09.858,-1.362000,1.742000,37.480000,0.281500,-0.165300,0.148900,0.305000,0.244000,-10.107000,0.000357,0.000136,0.006125
1764074529885379284,2025-11-25 18:12:09.882,-1.362000,1.741000,37.486000,0.280600,-0.165300,0.149900,0.317000,0.265000,-10.112000,-0.000714,0.001319,0.004071
1764074529911217877,2025-11-25 18:12:09.908,-1.363000,1.742000,37.491000,0.280800,-0.157500,0.155200,0.308000,0.249000,-10.126000,-0.000805,0.000861,0.006207
1764074529937529117,2025-11-25 18:12:09.934,-1.363000,1.743000,37.491000,0.280500,-0.170100,0.148900,0.332000,0.255000,-10.152000,0.000882,0.001296,0.004945
1764074529961698469,2025-11-25 18:12:09.959,-1.363000,1.745000,37.498000,0.277900,-0.165200,0.148700,0.292000,0.265000,-10.114000,-0.000580,0.001761,0.003813
1764074529988459562,2025-11-25 18:12:09.985,-1.361000,1.749000,37.501000,0.279700,-0.165300,0.148800,0.306000,0.212000,-10.155000,0.000187,0.001849,0.005774
1764074530014794154,2025-11-25 18:12:10.010,-1.359000,1.750000,37.507000,0.281500,-0.166200,0.155300,0.332000,0.240000,-10.139000,0.000499,0.001454,0.004117
1764074530079528747,2025-11-25 18:12:10.077,-1.358000,1.757000,37.522000,0.280600,-0.166200,0.148800,0.323000,0.199000,-10.143000,-0.000114,0.001180,0.005084
1764074530088993488,2025-11-25 18:12:10.086,-1.357000,1.760000,37.528000,0.279600,-0.167200,0.148800,0.305000,0.259000,-10.107000,0.001381,0.002633,0.003929
1764074530113122321,2025-11-25 18:12:10.110,-1.356000,1.762000,37.533000,0.282400,-0.166300,0.153200,0.318000,0.241000,-10.103000,0.000382,0.001863,0.004549
1764074530139728099,2025-11-25 18:12:10.136,-1.356000,1.764000,37.540000,0.279700,-0.164300,0.145600,0.326000,0.226000,-10.158000,0.000366,0.001705,0.004869
1764074530163864654,2025-11-25 18:12:10.161,-1.356000,1.767000,37.545000,0.280600,-0.166200,0.147800,0.285000,0.257000,-10.107000,0.000106,0.000456,0.003625
1764074530189784339,2025-11-25 18:12:10.187,-1.356000,1.768000,37.551000,0.278700,-0.168100,0.152000,0.329000,0.228000,-10.120000,-0.000722,-0.000812,0.003331
1764074530210427821,2025-11-25 18:12:10.207,-1.355000,1.768000,37.558000,0.278700,-0.167200,0.153000,0.305000,0.231000,-10.151000,0.000226,0.000479,0.005787
1764074530240132451,2025-11-25 18:12:10.236,-1.354000,1.769000,37.564000,0.279800,-0.162400,0.152000,0.302000,0.248000,-10.110000,-0.001333,0.000812,0.003684
1764074530261784988,2025-11-25 18:12:10.259,-1.355000,1.768000,37.574000,0.280500,-0.170100,0.153100,0.332000,0.228000,-10.138000,-0.001042,-0.001146,0.004312
1764074530295230136,2025-11-25 18:12:10.286,-1.354000,1.767000,37.578000,0.279700,-0.164300,0.146700,0.327000,0.250000,-10.123000,-0.000151,-0.001181,0.005048
1764074530311131876,2025-11-25 18:12:10.308,-1.356000,1.765000,37.586000,0.278800,-0.166200,0.150900,0.320000,0.250000,-10.147000,-0.001798,-0.001254,0.003137
1764074530337264469,2025-11-25 18:12:10.334,-1.356000,1.763000,37.592000,0.279600,-0.168100,0.149900,0.303000,0.211000,-10.118000,0.000104,-0.002203,0.004656
1764074530363903673,2025-11-25 18:12:10.359,-1.355000,1.762000,37.596000,0.279700,-0.167200,0.152000,0.291000,0.238000,-10.122000,-0.000727,-0.001795,0.005107
1764074530386918154,2025-11-25 18:12:10.384,-1.355000,1.759000,37.602000,0.281600,-0.163400,0.149900,0.320000,0.243000,-10.121000,-0.001078,-0.000513,0.004060
1764074530411330413,2025-11-25 18:12:10.409,-1.356000,1.759000,37.610000,0.279700,-0.163300,0.155200,0.288000,0.220000,-10.134000,-0.000860,-0.000724,0.006525
1764074530436498099,2025-11-25 18:12:10.433,-1.357000,1.756000,37.615000,0.279600,-0.169100,0.152000,0.324000,0.233000,-10.120000,-0.000183,-0.001465,0.005802
1764074530462910747,2025-11-25 18:12:10.460,-1.357000,1.753000,37.623000,0.277900,-0.164200,0.153000,0.298000,0.230000,-10.112000,-0.002072,-0.000774,0.003624
1764074530485341673,2025-11-25 18:12:10.482,-1.357000,1.753000,37.629000,0.279600,-0.171000,0.152000,0.297000,0.238000,-10.119000,-0.001012,-0.000977,0.004565
1764074530510407913,2025-11-25 18:12:10.507,-1.358000,1.751000,37.637000,0.281400,-0.169100,0.155300,0.333000,0.230000,-10.112000,-0.000332,-0.000584,0.005356
1764074530542070024,2025-11-25 18:12:10.538,-1.359000,1.750000,37.642000,0.279700,-0.167200,0.153100,0.264000,0.268000,-10.121000,-0.000740,-0.000042,0.003938
1764074530560391765,2025-11-25 18:12:10.557,-1.360000,1.750000,37.648000,0.280600,-0.163300,0.152000,0.312000,0.241000,-10.099000,-0.001467,0.000508,0.004177
1764074530589218487,2025-11-25 18:12:10.585,-1.362000,1.750000,37.649000,0.279600,-0.167200,0.152000,0.287000,0.242000,-10.128000,-0.000146,-0.000136,0.004774
1764074530611566710,2025-11-25 18:12:10.609,-1.363000,1.750000,37.655000,0.279600,-0.168200,0.147700,0.310000,0.238000,-10.101000,-0.001269,0.000635,0.003463
1764074530636886265,2025-11-25 18:12:10.634,-1.364000,1.750000,37.663000,0.278700,-0.167200,0.148800,0.334000,0.220000,-10.129000,-0.000744,0.000342,0.006514
1764074530660069876,2025-11-25 18:12:10.657,-1.364000,1.750000,37.671000,0.280600,-0.165300,0.153100,0.279000,0.262000,-10.084000,-0.000784,0.000541,0.004118
1764074530685141710,2025-11-25 18:12:10.682,-1.365000,1.751000,37.674000,0.277800,-0.166200,0.149800,0.316000,0.211000,-10.121000,-0.000404,0.000458,0.003207
1764074530713074265,2025-11-25 18:12:10.710,-1.366000,1.751000,37.682000,0.281400,-0.171100,0.150000,0.328000,0.230000,-10.120000,-0.000444,0.001395,0.004849
1764074530737998080,2025-11-25 18:12:10.735,-1.366000,1.754000,37.690000,0.280500,-0.168200,0.154200,0.284000,0.286000,-10.114000,-0.001229,0.000571,0.004322
1764074530763274098,2025-11-25 18:12:10.760,-1.367000,1.755000,37.695000,0.279600,-0.168100,0.153100,0.331000,0.215000,-10.141000,0.000152,0.000792,0.004825
1764074530788199172,2025-11-25 18:12:10.784,-1.367000,1.756000,37.700000,0.277900,-0.162300,0.151900,0.313000,0.275000,-10.101000,0.001058,0.000015,0.004621
1764074530811774802,2025-11-25 18:12:10.809,-1.367000,1.757000,37.706000,0.278600,-0.172900,0.152000,0.309000,0.250000,-10.099000,0.000192,0.000038,0.003666
1764074530839566617,2025-11-25 18:12:10.837,-1.366000,1.757000,37.715000,0.278700,-0.170100,0.150900,0.329000,0.237000,-10.159000,0.000808,0.000276,0.005843
1764074530863269802,2025-11-25 18:12:10.860,-1.365000,1.758000,37.721000,0.279700,-0.163300,0.153000,0.291000,0.272000,-10.085000,0.000753,-0.000088,0.004815
1764074530888727302,2025-11-25 18:12:10.885,-1.363000,1.757000,37.728000,0.276900,-0.168100,0.148700,0.309000,0.227000,-10.102000,0.000834,-0.000134,0.003735
1764074530913531376,2025-11-25 18:12:10.910,-1.362000,1.756000,37.734000,0.280600,-0.167200,0.153100,0.300000,0.241000,-10.114000,0.001927,-0.001371,0.004333
1764074530940705821,2025-11-25 18:12:10.938,-1.360000,1.754000,37.737000,0.278800,-0.166200,0.149800,0.301000,0.241000,-10.133000,0.000472,-0.000853,0.004751
1764074530962063117,2025-11-25 18:12:10.959,-1.359000,1.753000,37.743000,0.279600,-0.170100,0.152000,0.336000,0.250000,-10.136000,0.000952,-0.000145,0.004295
1764074530987756895,2025-11-25 18:12:10.984,-1.357000,1.753000,37.752000,0.276900,-0.167100,0.150800,0.301000,0.244000,-10.129000,0.002074,-0.000468,0.005962
1764074531013013987,2025-11-25 18:12:11.010,-1.354000,1.752000,37.759000,0.280700,-0.159500,0.152000,0.300000,0.254000,-10.128000,0.001565,-0.001070,0.003900
1764074531079254265,2025-11-25 18:12:11.077,-1.350000,1.752000,37.771000,0.277000,-0.163300,0.151800,0.284000,0.236000,-10.098000,0.002041,0.000171,0.005523
1764074531089598376,2025-11-25 18:12:11.087,-1.348000,1.751000,37.773000,0.277800,-0.169100,0.153000,0.313000,0.232000,-10.133000,0.000696,-0.000919,0.002854
1764074531115632006,2025-11-25 18:12:11.113,-1.347000,1.751000,37.780000,0.277800,-0.167100,0.151900,0.309000,0.209000,-10.158000,0.001003,-0.000573,0.003753
1764074531139187006,2025-11-25 18:12:11.136,-1.345000,1.751000,37.788000,0.277800,-0.168100,0.150900,0.331000,0.232000,-10.139000,0.000471,0.000457,0.006017
1764074531161761320,2025-11-25 18:12:11.159,-1.345000,1.752000,37.795000,0.278700,-0.169100,0.153000,0.322000,0.251000,-10.098000,-0.000509,0.000077,0.003405
1764074531187869820,2025-11-25 18:12:11.184,-1.345000,1.753000,37.804000,0.278700,-0.170100,0.152000,0.297000,0.209000,-10.126000,-0.000200,0.000864,0.004960
1764074531212463043,2025-11-25 18:12:11.209,-1.345000,1.754000,37.807000,0.278900,-0.161400,0.145500,0.329000,0.235000,-10.123000,-0.001347,0.000884,0.004672
1764074531238953061,2025-11-25 18:12:11.237,-1.345000,1.755000,37.814000,0.279600,-0.170100,0.149900,0.286000,0.215000,-10.102000,-0.001396,0.000850,0.004540
1764074531263660672,2025-11-25 18:12:11.261,-1.346000,1.757000,37.822000,0.281500,-0.167200,0.148900,0.321000,0.216000,-10.125000,-0.001119,0.001221,0.006055
1764074531289645117,2025-11-25 18:12:11.286,-1.347000,1.759000,37.828000,0.279700,-0.166200,0.150900,0.293000,0.248000,-10.119000,-0.000983,0.001669,0.005169
1764074531316257580,2025-11-25 18:12:11.314,-1.348000,1.761000,37.838000,0.280500,-0.169100,0.151000,0.291000,0.233000,-10.081000,-0.002261,0.000596,0.006400
1764074531338038246,2025-11-25 18:12:11.335,-1.349000,1.763000,37.844000,0.280600,-0.166200,0.147800,0.322000,0.220000,-10.140000,-0.001371,0.001042,0.004472
1764074531364087005,2025-11-25 18:12:11.361,-1.352000,1.764000,37.851000,0.280600,-0.166200,0.152100,0.277000,0.253000,-10.098000,-0.002395,0.002200,0.003997
1764074531387274635,2025-11-25 18:12:11.384,-1.355000,1.767000,37.858000,0.276900,-0.169100,0.153000,0.289000,0.241000,-10.112000,-0.002286,0.002164,0.003254
1764074531416849339,2025-11-25 18:12:11.414,-1.358000,1.767000,37.863000,0.278700,-0.167200,0.153000,0.307000,0.255000,-10.121000,-0.002005,0.001231,0.004399
1764074531436528098,2025-11-25 18:12:11.434,-1.361000,1.770000,37.872000,0.280700,-0.161400,0.150900,0.312000,0.285000,-10.111000,-0.002684,0.000816,0.004850
1764074531464399431,2025-11-25 18:12:11.461,-1.363000,1.771000,37.881000,0.278800,-0.163300,0.153000,0.323000,0.216000,-10.137000,-0.002747,-0.000554,0.004396
1764074531490670950,2025-11-25 18:12:11.487,-1.366000,1.772000,37.883000,0.279600,-0.169100,0.152000,0.295000,0.226000,-10.125000,-0.001806,0.001098,0.004422
1764074531513323283,2025-11-25 18:12:11.510,-1.366000,1.773000,37.889000,0.278700,-0.170000,0.155200,0.288000,0.249000,-10.109000,-0.001677,0.000268,0.003251
1764074531539107653,2025-11-25 18:12:11.536,-1.369000,1.772000,37.895000,0.279600,-0.168100,0.152000,0.337000,0.226000,-10.156000,-0.001051,-0.000565,0.004527
1764074531563946042,2025-11-25 18:12:11.561,-1.369000,1.772000,37.900000,0.280500,-0.169100,0.151000,0.294000,0.263000,-10.180000,-0.000638,-0.000503,0.004388
1764074531588961561,2025-11-25 18:12:11.585,-1.372000,1.771000,37.907000,0.277800,-0.167100,0.154000,0.329000,0.243000,-10.105000,-0.000452,-0.000552,0.002884
1764074531614809153,2025-11-25 18:12:11.611,-1.371000,1.770000,37.909000,0.277800,-0.168100,0.155100,0.309000,0.255000,-10.152000,0.000787,-0.001444,0.003991
1764074531639115135,2025-11-25 18:12:11.636,-1.371000,1.769000,37.916000,0.277900,-0.165200,0.148700,0.298000,0.254000,-10.155000,-0.000578,-0.001484,0.003499
1764074531665135339,2025-11-25 18:12:11.662,-1.371000,1.767000,37.924000,0.276900,-0.167100,0.148700,0.346000,0.237000,-10.115000,0.000013,-0.002015,0.004855
1764074531689568598,2025-11-25 18:12:11.684,-1.370000,1.765000,37.929000,0.278800,-0.164300,0.153000,0.296000,0.243000,-10.135000,0.000940,-0.002407,0.004736
1764074531713210487,2025-11-25 18:12:11.710,-1.368000,1.764000,37.930000,0.276900,-0.169100,0.146500,0.344000,0.266000,-10.145000,0.001393,-0.002554,0.002756
1764074531738514857,2025-11-25 18:12:11.736,-1.367000,1.761000,37.937000,0.279600,-0.168100,0.155200,0.308000,0.226000,-10.138000,0.001303,-0.002165,0.003972
1764074531763829690,2025-11-25 18:12:11.761,-1.364000,1.758000,37.943000,0.280500,-0.168200,0.152100,0.300000,0.237000,-10.165000,0.001724,-0.001646,0.005135
1764074531787063079,2025-11-25 18:12:11.783,-1.361000,1.756000,37.946000,0.277800,-0.168100,0.150800,0.322000,0.247000,-10.137000,0.002428,-0.001211,0.003399
1764074531814582135,2025-11-25 18:12:11.811,-1.359000,1.754000,37.951000,0.279600,-0.167200,0.152000,0.302000,0.240000,-10.153000,0.001362,-0.002160,0.005173
1764074531839122376,2025-11-25 18:12:11.836,-1.356000,1.752000,37.954000,0.280500,-0.169100,0.151000,0.310000,0.252000,-10.153000,0.002786,-0.002074,0.005341
1764074531862581579,2025-11-25 18:12:11.859,-1.352000,1.748000,37.963000,0.278700,-0.168100,0.149800,0.321000,0.236000,-10.109000,0.001818,-0.002171,0.003388
1764074531888587116,2025-11-25 18:12:11.885,-1.349000,1.747000,37.971000,0.278900,-0.160400,0.154000,0.296000,0.222000,-10.145000,0.001772,-0.001028,0.005848
1764074531913496394,2025-11-25 18:12:11.911,-1.348000,1.746000,37.979000,0.279600,-0.169100,0.153100,0.330000,0.235000,-10.125000,0.001052,-0.000715,0.004986
1764074531938378153,2025-11-25 18:12:11.935,-1.346000,1.745000,37.983000,0.278700,-0.169100,0.153000,0.273000,0.232000,-10.125000,0.001275,-0.000739,0.004089
1764074531966552061,2025-11-25 18:12:11.963,-1.344000,1.744000,37.989000,0.277000,-0.163300,0.151800,0.290000,0.223000,-10.106000,0.000555,-0.000529,0.005697
1764074531987262061,2025-11-25 18:12:11.984,-1.342000,1.743000,37.993000,0.278700,-0.168100,0.150900,0.290000,0.252000,-10.110000,0.000517,-0.000080,0.003360
1764074532012710172,2025-11-25 18:12:12.010,-1.341000,1.743000,38.000000,0.276900,-0.167100,0.154000,0.304000,0.237000,-10.169000,0.000127,-0.000170,0.004394
1764074532081829116,2025-11-25 18:12:12.079,-1.339000,1.744000,38.011000,0.277700,-0.171000,0.146600,0.294000,0.254000,-10.123000,0.000896,0.000480,0.003877
1764074532091268672,2025-11-25 18:12:12.089,-1.339000,1.746000,38.017000,0.278800,-0.165200,0.149800,0.299000,0.223000,-10.103000,-0.000241,0.000734,0.003684
1764074532112283912,2025-11-25 18:12:12.109,-1.338000,1.747000,38.022000,0.277800,-0.169100,0.148700,0.313000,0.243000,-10.138000,-0.000289,0.001271,0.003940
1764074532140613209,2025-11-25 18:12:12.137,-1.337000,1.750000,38.029000,0.278800,-0.166200,0.149800,0.278000,0.236000,-10.064000,-0.000224,0.000826,0.001647
1764074532162331523,2025-11-25 18:12:12.159,-1.338000,1.752000,38.031000,0.278700,-0.170100,0.148800,0.318000,0.219000,-10.127000,-0.000759,0.003266,0.003525
1764074532187782764,2025-11-25 18:12:12.185,-1.338000,1.754000,38.038000,0.278700,-0.167200,0.149800,0.303000,0.258000,-10.117000,0.000039,0.002055,0.002842
1764074532215116338,2025-11-25 18:12:12.211,-1.339000,1.757000,38.045000,0.279700,-0.164300,0.149800,0.326000,0.217000,-10.098000,-0.000930,0.001017,0.002951
1764074532238825060,2025-11-25 18:12:12.235,-1.341000,1.759000,38.048000,0.278600,-0.172000,0.145600,0.323000,0.224000,-10.113000,-0.000579,0.002710,0.003668
1764074532263665468,2025-11-25 18:12:12.261,-1.342000,1.762000,38.055000,0.277000,-0.163300,0.150800,0.305000,0.254000,-10.126000,-0.001840,0.001928,0.003862
1764074532288314486,2025-11-25 18:12:12.285,-1.344000,1.765000,38.058000,0.279700,-0.167200,0.156300,0.319000,0.212000,-10.147000,-0.001830,0.001432,0.002971
1764074532313312412,2025-11-25 18:12:12.310,-1.347000,1.766000,38.063000,0.277700,-0.171000,0.149800,0.308000,0.220000,-10.127000,-0.002216,0.001282,0.004235
1764074532340410412,2025-11-25 18:12:12.338,-1.350000,1.769000,38.072000,0.279500,-0.172000,0.153100,0.322000,0.218000,-10.126000,-0.002848,-0.000170,0.004286
1764074532361905060,2025-11-25 18:12:12.359,-1.353000,1.770000,38.080000,0.276900,-0.169100,0.148700,0.332000,0.221000,-10.088000,-0.001721,-0.000115,0.003755
1764074532387493690,2025-11-25 18:12:12.384,-1.356000,1.771000,38.086000,0.277800,-0.167200,0.149800,0.307000,0.257000,-10.134000,-0.002350,-0.001124,0.004906
1764074532414126709,2025-11-25 18:12:12.410,-1.360000,1.772000,38.093000,0.279700,-0.166200,0.155200,0.326000,0.246000,-10.082000,-0.001614,0.000044,0.003997
1764074532442179097,2025-11-25 18:12:12.439,-1.365000,1.771000,38.099000,0.278700,-0.168100,0.156200,0.297000,0.242000,-10.136000,-0.000992,-0.000115,0.004432
1764074532463339671,2025-11-25 18:12:12.460,-1.368000,1.770000,38.105000,0.279600,-0.170100,0.148800,0.337000,0.267000,-10.091000,-0.001649,-0.002324,0.003788
1764074532486634894,2025-11-25 18:12:12.483,-1.372000,1.769000,38.112000,0.278800,-0.166200,0.148700,0.322000,0.238000,-10.151000,-0.003013,-0.002970,0.004434
1764074532513581986,2025-11-25 18:12:12.510,-1.374000,1.767000,38.116000,0.277800,-0.169100,0.153000,0.299000,0.260000,-10.129000,-0.001131,-0.003013,0.005190
1764074532536291264,2025-11-25 18:12:12.533,-1.377000,1.765000,38.121000,0.280600,-0.165300,0.152000,0.309000,0.270000,-10.121000,-0.001984,-0.001701,0.003410
1764074532563654671,2025-11-25 18:12:12.561,-1.380000,1.762000,38.130000,0.279600,-0.167200,0.148800,0.324000,0.244000,-10.092000,-0.000498,-0.002854,0.003603
1764074532588181375,2025-11-25 18:12:12.585,-1.380000,1.760000,38.133000,0.276900,-0.169000,0.152900,0.290000,0.240000,-10.131000,0.000520,-0.002528,0.006368
1764074532613195301,2025-11-25 18:12:12.609,-1.379000,1.756000,38.141000,0.279600,-0.168100,0.153100,0.336000,0.270000,-10.150000,0.000901,-0.001992,0.003486
1764074532640385579,2025-11-25 18:12:12.638,-1.379000,1.753000,38.145000,0.280600,-0.166200,0.151000,0.314000,0.248000,-10.107000,0.000869,-0.002379,0.005443
1764074532662473857,2025-11-25 18:12:12.659,-1.377000,1.750000,38.152000,0.277800,-0.170000,0.155100,0.331000,0.242000,-10.124000,0.000953,-0.002127,0.005458
1764074532688927338,2025-11-25 18:12:12.684,-1.375000,1.747000,38.157000,0.276000,-0.169000,0.154000,0.319000,0.245000,-10.120000,0.002395,-0.001466,0.003356
1764074532714766412,2025-11-25 18:12:12.710,-1.372000,1.745000,38.163000,0.275900,-0.171900,0.152900,0.315000,0.252000,-10.136000,0.002096,-0.000988,0.005523
1764074532740249801,2025-11-25 18:12:12.737,-1.370000,1.743000,38.167000,0.278700,-0.167200,0.153000,0.305000,0.260000,-10.137000,0.001983,-0.000902,0.003295
1764074532762362153,2025-11-25 18:12:12.759,-1.367000,1.741000,38.172000,0.279600,-0.170100,0.154200,0.290000,0.236000,-10.123000,0.001341,0.000117,0.002275
1764074532787750375,2025-11-25 18:12:12.784,-1.363000,1.741000,38.179000,0.278600,-0.172000,0.155200,0.309000,0.219000,-10.154000,0.002804,-0.000866,0.003878
1764074532813460505,2025-11-25 18:12:12.810,-1.358000,1.741000,38.183000,0.276800,-0.174800,0.154100,0.328000,0.252000,-10.080000,0.002973,0.000708,0.003527
1764074532841237930,2025-11-25 18:12:12.838,-1.353000,1.742000,38.191000,0.276800,-0.172900,0.150800,0.280000,0.230000,-10.127000,0.002099,0.000146,0.003844
1764074532863656060,2025-11-25 18:12:12.858,-1.350000,1.742000,38.196000,0.278700,-0.168100,0.152000,0.311000,0.211000,-10.108000,0.001359,0.001111,0.004793
1764074532884782801,2025-11-25 18:12:12.882,-1.345000,1.744000,38.196000,0.277700,-0.173900,0.153000,0.297000,0.238000,-10.067000,0.001656,0.001399,0.002093
1764074532913536856,2025-11-25 18:12:12.910,-1.342000,1.746000,38.197000,0.275900,-0.170000,0.151800,0.303000,0.228000,-10.122000,0.001552,0.001022,0.003348
1764074532940219523,2025-11-25 18:12:12.937,-1.341000,1.748000,38.203000,0.276900,-0.166200,0.150800,0.319000,0.235000,-10.120000,0.000397,0.001718,0.002976
1764074532962339504,2025-11-25 18:12:12.959,-1.339000,1.751000,38.208000,0.277700,-0.171000,0.151900,0.284000,0.223000,-10.105000,-0.000223,0.003463,0.003538
1764074532987077782,2025-11-25 18:12:12.984,-1.337000,1.754000,38.214000,0.278700,-0.169100,0.149800,0.311000,0.205000,-10.122000,0.000774,0.000554,0.003837
1764074533013366004,2025-11-25 18:12:13.010,-1.336000,1.755000,38.218000,0.279500,-0.173000,0.149900,0.299000,0.240000,-10.086000,0.000010,0.003156,0.003139
1764074533081355060,2025-11-25 18:12:13.079,-1.338000,1.761000,38.232000,0.276800,-0.171900,0.154000,0.314000,0.197000,-10.125000,-0.001534,0.000216,0.004060
1764074533090745745,2025-11-25 18:12:13.088,-1.339000,1.762000,38.235000,0.277800,-0.168100,0.150800,0.303000,0.238000,-10.117000,-0.002321,0.001157,0.002839
1764074533112256282,2025-11-25 18:12:13.109,-1.342000,1.764000,38.238000,0.276800,-0.172000,0.147600,0.317000,0.233000,-10.125000,-0.002459,0.000504,0.003827
1764074533138113375,2025-11-25 18:12:13.134,-1.345000,1.766000,38.242000,0.276700,-0.174800,0.149800,0.306000,0.243000,-10.119000,-0.002665,0.001204,0.002975
1764074533161479097,2025-11-25 18:12:13.158,-1.348000,1.767000,38.242000,0.276100,-0.164200,0.167800,0.302000,0.246000,-10.111000,-0.002593,0.000076,0.002776
1764074533186340060,2025-11-25 18:12:13.183,-1.351000,1.767000,38.247000,0.276800,-0.173900,0.153000,0.343000,0.228000,-10.097000,-0.002597,-0.000122,0.005295
1764074533214006967,2025-11-25 18:12:13.210,-1.354000,1.767000,38.249000,0.276900,-0.169100,0.148700,0.289000,0.252000,-10.094000,-0.002040,-0.000601,0.003394
1764074533240371652,2025-11-25 18:12:13.237,-1.358000,1.766000,38.257000,0.276900,-0.170000,0.151900,0.322000,0.261000,-10.119000,-0.001704,-0.000663,0.003703
1764074533262328467,2025-11-25 18:12:13.259,-1.362000,1.765000,38.264000,0.278700,-0.167200,0.147700,0.303000,0.244000,-10.094000,-0.003155,-0.000799,0.004251
1764074533288420208,2025-11-25 18:12:13.284,-1.367000,1.765000,38.269000,0.278600,-0.172900,0.149900,0.301000,0.264000,-10.085000,-0.002046,-0.001074,0.004324
1764074533310724004,2025-11-25 18:12:13.307,-1.371000,1.764000,38.276000,0.275900,-0.171000,0.148600,0.330000,0.239000,-10.137000,-0.002248,-0.000785,0.003138
1764074533340525023,2025-11-25 18:12:13.337,-1.374000,1.763000,38.282000,0.278800,-0.165200,0.149800,0.291000,0.238000,-10.119000,-0.000711,-0.000062,0.004501
1764074533364508375,2025-11-25 18:12:13.361,-1.376000,1.763000,38.286000,0.277800,-0.170000,0.153000,0.306000,0.266000,-10.150000,-0.000089,-0.000564,0.003547
1764074533387945523,2025-11-25 18:12:13.384,-1.377000,1.760000,38.290000,0.276800,-0.170000,0.149800,0.339000,0.237000,-10.112000,0.000874,-0.001495,0.002141
1764074533413741189,2025-11-25 18:12:13.409,-1.376000,1.759000,38.297000,0.276000,-0.168000,0.170000,0.311000,0.263000,-10.150000,0.000542,-0.001182,0.004050
1764074533440767189,2025-11-25 18:12:13.438,-1.377000,1.758000,38.301000,0.275900,-0.170000,0.154000,0.324000,0.272000,-10.129000,0.000417,-0.001162,0.001515
1764074533461322504,2025-11-25 18:12:13.458,-1.377000,1.756000,38.304000,0.275900,-0.172900,0.155100,0.302000,0.244000,-10.132000,0.000673,-0.001424,0.003690
1764074533488541375,2025-11-25 18:12:13.485,-1.375000,1.756000,38.309000,0.275900,-0.171900,0.150800,0.306000,0.247000,-10.137000,0.001681,-0.002392,0.003776
1764074533514641004,2025-11-25 18:12:13.511,-1.374000,1.754000,38.316000,0.276900,-0.168100,0.149700,0.346000,0.255000,-10.110000,0.001909,-0.001857,0.002545
1764074533539860152,2025-11-25 18:12:13.537,-1.371000,1.753000,38.321000,0.278000,-0.161400,0.151900,0.295000,0.273000,-10.153000,0.002258,-0.001403,0.003537
1764074533562845300,2025-11-25 18:12:13.560,-1.369000,1.753000,38.328000,0.277800,-0.167200,0.147600,0.315000,0.231000,-10.101000,0.002101,-0.001177,0.003023
1764074533586598226,2025-11-25 18:12:13.583,-1.366000,1.751000,38.330000,0.278700,-0.170100,0.145600,0.323000,0.206000,-10.106000,0.001223,-0.001606,0.003761
1764074533612814245,2025-11-25 18:12:13.609,-1.362000,1.750000,38.331000,0.277800,-0.170000,0.147700,0.301000,0.230000,-10.117000,0.001438,-0.001238,0.003423
1764074533639922467,2025-11-25 18:12:13.637,-1.358000,1.750000,38.336000,0.277800,-0.167200,0.148700,0.303000,0.247000,-10.131000,0.002219,-0.001146,0.004524
1764074533662215208,2025-11-25 18:12:13.659,-1.356000,1.749000,38.340000,0.276000,-0.167100,0.151800,0.283000,0.241000,-10.104000,0.000932,0.000412,0.002978
1764074533689334115,2025-11-25 18:12:13.684,-1.354000,1.748000,38.345000,0.278700,-0.170100,0.148800,0.294000,0.213000,-10.149000,0.001390,-0.001180,0.004201
1764074533712110486,2025-11-25 18:12:13.708,-1.351000,1.747000,38.351000,0.277800,-0.169100,0.149800,0.304000,0.261000,-10.106000,0.001614,0.001342,0.003239
1764074533739609578,2025-11-25 18:12:13.737,-1.351000,1.748000,38.359000,0.276800,-0.170000,0.149800,0.299000,0.218000,-10.133000,0.000545,0.000085,0.004461
1764074533763744486,2025-11-25 18:12:13.761,-1.349000,1.748000,38.369000,0.276800,-0.171900,0.155100,0.305000,0.211000,-10.125000,-0.000593,0.000324,0.005186
1764074533788326985,2025-11-25 18:12:13.785,-1.348000,1.748000,38.374000,0.278700,-0.169100,0.153000,0.289000,0.243000,-10.136000,0.000395,0.000368,0.002983
1764074533812266078,2025-11-25 18:12:13.809,-1.348000,1.748000,38.377000,0.276800,-0.173900,0.151900,0.317000,0.220000,-10.153000,-0.000228,-0.000366,0.004125
1764074533838200615,2025-11-25 18:12:13.834,-1.348000,1.747000,38.385000,0.275900,-0.171000,0.154000,0.310000,0.241000,-10.130000,-0.000183,-0.001428,0.004152
1764074533865430022,2025-11-25 18:12:13.862,-1.348000,1.748000,38.388000,0.276900,-0.169100,0.150800,0.315000,0.244000,-10.111000,-0.001031,0.000048,0.002518
1764074533886951319,2025-11-25 18:12:13.883,-1.348000,1.747000,38.393000,0.277700,-0.172900,0.155200,0.339000,0.245000,-10.141000,-0.000270,-0.000544,0.002971
1764074533910639171,2025-11-25 18:12:13.908,-1.349000,1.746000,38.399000,0.276800,-0.174800,0.153000,0.277000,0.255000,-10.132000,-0.001345,-0.000904,0.003486
1764074533940560245,2025-11-25 18:12:13.938,-1.349000,1.747000,38.407000,0.274900,-0.176700,0.152900,0.307000,0.229000,-10.131000,-0.000605,-0.000429,0.002964
1764074533962487263,2025-11-25 18:12:13.959,-1.350000,1.745000,38.413000,0.279500,-0.173000,0.152100,0.333000,0.240000,-10.133000,-0.000702,-0.000027,0.003832
1764074533987954596,2025-11-25 18:12:13.984,-1.351000,1.746000,38.418000,0.277700,-0.173900,0.150900,0.291000,0.255000,-10.137000,-0.000556,-0.000409,0.002138
1764074534013607152,2025-11-25 18:12:14.011,-1.351000,1.745000,38.419000,0.276900,-0.170000,0.151900,0.318000,0.223000,-10.103000,-0.001030,0.000100,0.002346
1764074534078572263,2025-11-25 18:12:14.076,-1.353000,1.744000,38.425000,0.278600,-0.173900,0.152000,0.317000,0.232000,-10.130000,-0.001515,-0.001008,0.002434
1764074534088114059,2025-11-25 18:12:14.085,-1.353000,1.745000,38.430000,0.277800,-0.168100,0.148700,0.316000,0.214000,-10.133000,-0.000154,0.000439,0.002486
1764074534112778911,2025-11-25 18:12:14.109,-1.353000,1.745000,38.434000,0.276800,-0.171000,0.147600,0.307000,0.245000,-10.112000,-0.000629,0.000741,0.003874
1764074534141824004,2025-11-25 18:12:14.139,-1.355000,1.746000,38.440000,0.279600,-0.171000,0.149900,0.313000,0.217000,-10.123000,-0.000884,-0.000368,0.002235
1764074534160507300,2025-11-25 18:12:14.158,-1.357000,1.746000,38.448000,0.276800,-0.173900,0.150900,0.305000,0.220000,-10.138000,-0.000140,0.000962,0.004281
1764074534186837578,2025-11-25 18:12:14.184,-1.356000,1.750000,38.453000,0.278600,-0.172000,0.153100,0.297000,0.241000,-10.140000,-0.000324,0.000913,0.003347
1764074534213430319,2025-11-25 18:12:14.209,-1.357000,1.751000,38.456000,0.277700,-0.172000,0.150900,0.334000,0.217000,-10.126000,-0.000777,0.000633,0.003367
1764074534240258763,2025-11-25 18:12:14.237,-1.358000,1.754000,38.461000,0.277700,-0.172000,0.152000,0.295000,0.213000,-10.126000,-0.000483,0.000619,0.003566
1764074534261308800,2025-11-25 18:12:14.259,-1.360000,1.756000,38.461000,0.276700,-0.175800,0.147700,0.310000,0.250000,-10.159000,-0.001905,0.002001,0.002230
1764074534287905652,2025-11-25 18:12:14.284,-1.362000,1.756000,38.465000,0.276800,-0.173900,0.153000,0.309000,0.225000,-10.167000,-0.001804,0.001398,0.003593
1764074534313122300,2025-11-25 18:12:14.310,-1.363000,1.758000,38.468000,0.276800,-0.173900,0.154100,0.298000,0.234000,-10.118000,-0.001513,0.001337,0.004878
1764074534339053115,2025-11-25 18:12:14.336,-1.365000,1.759000,38.475000,0.278600,-0.172000,0.153100,0.311000,0.242000,-10.101000,-0.001894,0.001725,0.002739
1764074534363205504,2025-11-25 18:12:14.360,-1.366000,1.762000,38.480000,0.277700,-0.172900,0.152000,0.308000,0.239000,-10.116000,-0.001078,0.001085,0.003142
1764074534387935226,2025-11-25 18:12:14.384,-1.368000,1.763000,38.485000,0.274900,-0.173800,0.150800,0.327000,0.236000,-10.100000,-0.001059,-0.000173,0.003255
1764074534412940744,2025-11-25 18:12:14.409,-1.369000,1.764000,38.489000,0.276800,-0.172000,0.150800,0.304000,0.244000,-10.113000,-0.001892,-0.000288,0.002993
1764074534441114726,2025-11-25 18:12:14.438,-1.370000,1.765000,38.497000,0.275900,-0.171900,0.149700,0.301000,0.235000,-10.150000,0.000330,-0.000240,0.003400
1764074534461188189,2025-11-25 18:12:14.458,-1.370000,1.765000,38.501000,0.276000,-0.169100,0.147600,0.339000,0.248000,-10.095000,0.000458,-0.001099,0.003342
1764074534488179652,2025-11-25 18:12:14.485,-1.371000,1.765000,38.506000,0.277800,-0.167200,0.148700,0.301000,0.263000,-10.100000,-0.000214,-0.000179,0.003092
1764074534514715929,2025-11-25 18:12:14.511,-1.372000,1.764000,38.511000,0.275900,-0.171000,0.149700,0.315000,0.239000,-10.160000,-0.000224,-0.000206,0.003116
1764074534538645559,2025-11-25 18:12:14.536,-1.371000,1.762000,38.511000,0.276100,-0.162300,0.150700,0.312000,0.234000,-10.147000,0.000062,-0.001145,0.002679
1764074534562787207,2025-11-25 18:12:14.560,-1.369000,1.762000,38.519000,0.279700,-0.162400,0.147700,0.301000,0.236000,-10.088000,0.001018,-0.001751,0.004542
1764074534588116300,2025-11-25 18:12:14.584,-1.369000,1.760000,38.520000,0.278600,-0.172900,0.153100,0.315000,0.228000,-10.100000,0.000494,-0.002292,0.003493
1764074534612947004,2025-11-25 18:12:14.609,-1.367000,1.757000,38.526000,0.275900,-0.173900,0.152900,0.297000,0.244000,-10.099000,0.000928,-0.001635,0.002079
1764074534640045281,2025-11-25 18:12:14.637,-1.366000,1.755000,38.531000,0.276900,-0.167100,0.150800,0.324000,0.251000,-10.147000,0.001196,-0.001934,0.004045
1764074534662052244,2025-11-25 18:12:14.659,-1.365000,1.752000,38.534000,0.277800,-0.169100,0.148700,0.308000,0.256000,-10.158000,0.002035,-0.001120,0.002642
1764074534687650318,2025-11-25 18:12:14.684,-1.362000,1.751000,38.539000,0.276800,-0.171000,0.150800,0.298000,0.236000,-10.107000,0.001726,-0.001086,0.004020
1764074534712973411,2025-11-25 18:12:14.709,-1.360000,1.748000,38.543000,0.277800,-0.169100,0.149800,0.321000,0.214000,-10.084000,0.001106,-0.001151,0.004208
1764074534739913429,2025-11-25 18:12:14.737,-1.358000,1.747000,38.548000,0.278700,-0.169100,0.149800,0.298000,0.260000,-10.131000,0.000846,-0.002350,0.001806
1764074534761496615,2025-11-25 18:12:14.759,-1.356000,1.745000,38.550000,0.276800,-0.170000,0.148700,0.328000,0.225000,-10.101000,0.001108,-0.000261,0.002421
1764074534787742170,2025-11-25 18:12:14.784,-1.353000,1.744000,38.554000,0.276000,-0.169000,0.148600,0.323000,0.218000,-10.125000,0.001422,-0.000158,0.003723
1764074534814022911,2025-11-25 18:12:14.811,-1.351000,1.745000,38.559000,0.277800,-0.167200,0.146600,0.283000,0.266000,-10.113000,0.001328,-0.000048,0.002844
1764074534839900652,2025-11-25 18:12:14.837,-1.349000,1.745000,38.560000,0.277700,-0.174900,0.152000,0.306000,0.224000,-10.111000,0.001000,0.000436,0.001280
1764074534861540466,2025-11-25 18:12:14.859,-1.349000,1.745000,38.565000,0.276800,-0.172900,0.151900,0.321000,0.241000,-10.118000,0.001191,-0.000366,0.002438
1764074534888144411,2025-11-25 18:12:14.885,-1.347000,1.745000,38.567000,0.279500,-0.173000,0.153100,0.269000,0.231000,-10.126000,0.000318,-0.000325,0.001592
1764074534913108522,2025-11-25 18:12:14.909,-1.347000,1.745000,38.572000,0.276000,-0.168100,0.155000,0.340000,0.229000,-10.121000,-0.000284,0.000927,0.004434
1764074534935609633,2025-11-25 18:12:14.933,-1.346000,1.747000,38.576000,0.275900,-0.172900,0.152900,0.284000,0.250000,-10.137000,-0.000169,-0.000226,0.002023
1764074534963472670,2025-11-25 18:12:14.960,-1.346000,1.749000,38.579000,0.276000,-0.167100,0.147600,0.319000,0.230000,-10.108000,0.000329,0.001238,0.004000
1764074534988050911,2025-11-25 18:12:14.984,-1.346000,1.749000,38.582000,0.277000,-0.162300,0.154000,0.326000,0.207000,-10.120000,-0.000800,0.000883,0.002908
1764074535014272633,2025-11-25 18:12:15.012,-1.347000,1.751000,38.587000,0.277700,-0.173900,0.153000,0.299000,0.242000,-10.120000,-0.002033,0.000522,0.002770
1764074535080236133,2025-11-25 18:12:15.078,-1.350000,1.752000,38.594000,0.275900,-0.170000,0.154000,0.303000,0.244000,-10.141000,-0.001692,0.000156,0.004131
1764074535089386096,2025-11-25 18:12:15.087,-1.352000,1.753000,38.599000,0.277700,-0.174800,0.154100,0.347000,0.214000,-10.118000,-0.002553,-0.000812,0.003389
1764074535115265633,2025-11-25 18:12:15.112,-1.354000,1.753000,38.607000,0.276900,-0.168100,0.154000,0.314000,0.211000,-10.130000,-0.000832,-0.000010,0.004163
1764074535138790114,2025-11-25 18:12:15.136,-1.356000,1.755000,38.610000,0.277700,-0.173900,0.149800,0.315000,0.255000,-10.163000,-0.001837,0.000070,0.005212
1764074535163693818,2025-11-25 18:12:15.160,-1.358000,1.754000,38.614000,0.277800,-0.170000,0.151900,0.339000,0.249000,-10.104000,-0.001834,-0.001148,0.002876
1764074535188392577,2025-11-25 18:12:15.184,-1.360000,1.753000,38.617000,0.276800,-0.172900,0.154100,0.305000,0.228000,-10.109000,-0.001077,-0.001248,0.002695
1764074535212443022,2025-11-25 18:12:15.209,-1.362000,1.752000,38.619000,0.275900,-0.171900,0.152900,0.326000,0.277000,-10.146000,-0.001080,-0.001593,0.002475
1764074535237242559,2025-11-25 18:12:15.234,-1.365000,1.749000,38.621000,0.276900,-0.168100,0.150800,0.324000,0.225000,-10.105000,-0.000061,-0.001846,0.001576
1764074535263072614,2025-11-25 18:12:15.260,-1.365000,1.750000,38.625000,0.277700,-0.171000,0.149800,0.290000,0.258000,-10.156000,-0.001344,0.000088,0.003474
1764074535284519651,2025-11-25 18:12:15.282,-1.366000,1.748000,38.628000,0.277700,-0.172900,0.150900,0.365000,0.264000,-10.125000,0.000401,-0.001714,0.001777
1764074535312012022,2025-11-25 18:12:15.309,-1.368000,1.748000,38.631000,0.276800,-0.171000,0.151900,0.283000,0.249000,-10.108000,-0.000164,0.000607,0.001464
1764074535339282707,2025-11-25 18:12:15.336,-1.368000,1.748000,38.633000,0.275200,-0.164200,0.151800,0.305000,0.243000,-10.134000,0.000951,-0.000944,0.003079
1764074535364247410,2025-11-25 18:12:15.361,-1.368000,1.747000,38.636000,0.274100,-0.172900,0.151800,0.326000,0.245000,-10.140000,0.000407,-0.000403,0.001519
1764074535388398596,2025-11-25 18:12:15.385,-1.368000,1.747000,38.642000,0.275000,-0.172900,0.152900,0.297000,0.236000,-10.174000,-0.000420,0.000052,0.002378
1764074535415339596,2025-11-25 18:12:15.412,-1.367000,1.746000,38.646000,0.275900,-0.170000,0.152900,0.314000,0.233000,-10.104000,0.001943,-0.001172,0.001595
1764074535437821040,2025-11-25 18:12:15.434,-1.366000,1.747000,38.646000,0.275800,-0.174800,0.151900,0.292000,0.291000,-10.135000,0.000523,0.000272,0.001993
1764074535463982984,2025-11-25 18:12:15.461,-1.365000,1.748000,38.647000,0.276800,-0.172900,0.153000,0.293000,0.223000,-10.093000,0.000198,0.001474,0.003184
1764074535487259447,2025-11-25 18:12:15.483,-1.363000,1.749000,38.652000,0.279500,-0.174900,0.145700,0.320000,0.245000,-10.092000,0.002337,0.000260,0.002365
1764074535512639096,2025-11-25 18:12:15.509,-1.361000,1.752000,38.657000,0.276800,-0.174800,0.150900,0.295000,0.250000,-10.143000,0.000989,0.002144,0.001712
1764074535541052947,2025-11-25 18:12:15.538,-1.359000,1.754000,38.663000,0.276800,-0.172000,0.145500,0.310000,0.206000,-10.117000,0.001452,0.001800,0.004156
1764074535560933151,2025-11-25 18:12:15.558,-1.356000,1.758000,38.670000,0.275900,-0.173900,0.151900,0.310000,0.262000,-10.129000,0.001280,0.002602,0.000396
1764074535586970336,2025-11-25 18:12:15.584,-1.354000,1.762000,38.676000,0.275900,-0.172000,0.146500,0.293000,0.221000,-10.121000,0.001089,0.002454,0.002780
1764074535613974799,2025-11-25 18:12:15.610,-1.352000,1.766000,38.679000,0.277800,-0.168100,0.147700,0.308000,0.225000,-10.118000,0.000622,0.003536,0.002276
1764074535637191558,2025-11-25 18:12:15.634,-1.351000,1.769000,38.683000,0.278600,-0.172000,0.152000,0.311000,0.235000,-10.122000,0.000892,0.002488,0.001587
1764074535664564818,2025-11-25 18:12:15.662,-1.350000,1.773000,38.688000,0.275900,-0.171000,0.152900,0.317000,0.202000,-10.146000,-0.000393,0.002347,0.004637
1764074535687315521,2025-11-25 18:12:15.684,-1.349000,1.775000,38.692000,0.275000,-0.173800,0.151800,0.306000,0.226000,-10.127000,-0.000949,0.002229,0.003984
1764074535712480540,2025-11-25 18:12:15.709,-1.349000,1.780000,38.698000,0.276800,-0.171000,0.154000,0.289000,0.237000,-10.103000,-0.001708,0.002286,0.002268
1764074535739062114,2025-11-25 18:12:15.737,-1.350000,1.782000,38.702000,0.275900,-0.173900,0.152900,0.336000,0.208000,-10.110000,-0.000571,0.001467,0.003346
1764074535762995651,2025-11-25 18:12:15.760,-1.351000,1.785000,38.704000,0.274900,-0.175800,0.155000,0.304000,0.264000,-10.100000,-0.001380,0.000729,0.002949
1764074535785935429,2025-11-25 18:12:15.783,-1.352000,1.787000,38.710000,0.276700,-0.174800,0.149800,0.335000,0.225000,-10.111000,-0.000669,0.000613,0.001865
1764074535811713966,2025-11-25 18:12:15.808,-1.353000,1.787000,38.714000,0.278600,-0.172000,0.150900,0.306000,0.218000,-10.152000,-0.000294,0.001050,0.002507
1764074535840007577,2025-11-25 18:12:15.837,-1.354000,1.787000,38.719000,0.275800,-0.175800,0.150800,0.297000,0.285000,-10.117000,-0.001604,-0.000196,0.002151
1764074535861806318,2025-11-25 18:12:15.859,-1.357000,1.786000,38.725000,0.275000,-0.172900,0.148600,0.347000,0.226000,-10.125000,-0.002483,-0.001424,0.002485
1764074535887914503,2025-11-25 18:12:15.884,-1.358000,1.783000,38.729000,0.278700,-0.169100,0.148800,0.284000,0.238000,-10.126000,-0.000976,-0.001797,0.001969
1764074535911335910,2025-11-25 18:12:15.908,-1.360000,1.782000,38.735000,0.276800,-0.172000,0.149800,0.317000,0.245000,-10.095000,-0.001716,-0.001345,0.002879
1764074535939647484,2025-11-25 18:12:15.936,-1.361000,1.777000,38.736000,0.275900,-0.171900,0.149700,0.338000,0.249000,-10.117000,-0.000403,-0.002828,0.003477
1764074535962653521,2025-11-25 18:12:15.960,-1.363000,1.775000,38.739000,0.276900,-0.170000,0.149800,0.278000,0.237000,-10.112000,-0.000413,-0.002617,0.002982
1764074535986325410,2025-11-25 18:12:15.983,-1.363000,1.770000,38.743000,0.275000,-0.173800,0.152900,0.352000,0.214000,-10.110000,-0.000435,-0.003130,0.001577
1764074536011802929,2025-11-25 18:12:16.009,-1.363000,1.766000,38.747000,0.274000,-0.174800,0.150700,0.292000,0.253000,-10.123000,0.002095,-0.003480,0.003007
1764074536078950299,2025-11-25 18:12:16.076,-1.362000,1.757000,38.757000,0.275000,-0.172900,0.151800,0.309000,0.237000,-10.124000,0.000174,-0.003256,0.001571
1764074536089251706,2025-11-25 18:12:16.087,-1.360000,1.751000,38.759000,0.277700,-0.173900,0.150900,0.321000,0.258000,-10.138000,0.002052,-0.003234,0.002615
1764074536113973706,2025-11-25 18:12:16.110,-1.358000,1.748000,38.761000,0.279500,-0.173900,0.149900,0.311000,0.227000,-10.137000,0.001076,-0.001606,0.000908
1764074536140594280,2025-11-25 18:12:16.138,-1.356000,1.743000,38.763000,0.274900,-0.176700,0.151900,0.298000,0.240000,-10.118000,0.000688,-0.002746,0.002579
1764074536160761688,2025-11-25 18:12:16.158,-1.354000,1.741000,38.766000,0.274100,-0.170900,0.151800,0.274000,0.231000,-10.134000,0.001367,-0.002345,0.001825
1764074536186716984,2025-11-25 18:12:16.184,-1.353000,1.737000,38.768000,0.275900,-0.173900,0.150800,0.312000,0.245000,-10.113000,0.000472,-0.001398,0.001600
1764074536212692317,2025-11-25 18:12:16.209,-1.352000,1.736000,38.770000,0.275800,-0.175800,0.155100,0.276000,0.241000,-10.140000,0.000571,-0.000601,0.002382
1764074536240194262,2025-11-25 18:12:16.237,-1.351000,1.735000,38.774000,0.275800,-0.174800,0.150800,0.283000,0.224000,-10.104000,-0.000073,-0.000535,0.002033
1764074536264160780,2025-11-25 18:12:16.261,-1.351000,1.734000,38.778000,0.275900,-0.173800,0.156100,0.267000,0.248000,-10.111000,-0.000996,0.000889,0.001041
1764074536289406391,2025-11-25 18:12:16.284,-1.351000,1.734000,38.782000,0.274900,-0.175800,0.149700,0.312000,0.231000,-10.122000,-0.000213,0.001297,0.001721
1764074536310678706,2025-11-25 18:12:16.308,-1.351000,1.735000,38.785000,0.275900,-0.172900,0.149700,0.337000,0.229000,-10.130000,0.000708,0.002456,0.002015
1764074536339558465,2025-11-25 18:12:16.337,-1.352000,1.739000,38.788000,0.276800,-0.171000,0.153000,0.301000,0.229000,-10.113000,-0.001346,0.002775,0.001609
1764074536363502058,2025-11-25 18:12:16.360,-1.352000,1.743000,38.790000,0.274900,-0.173900,0.148600,0.306000,0.213000,-10.153000,-0.001551,0.002403,0.003737
1764074536388752169,2025-11-25 18:12:16.385,-1.353000,1.746000,38.791000,0.277800,-0.170000,0.150900,0.298000,0.244000,-10.144000,-0.000837,0.002782,0.000589
1764074536415083669,2025-11-25 18:12:16.411,-1.355000,1.749000,38.795000,0.276800,-0.172000,0.147600,0.311000,0.213000,-10.117000,-0.001580,0.002964,0.001960
1764074536437684151,2025-11-25 18:12:16.434,-1.355000,1.753000,38.798000,0.275900,-0.172900,0.150800,0.304000,0.234000,-10.127000,-0.000262,0.003592,0.003396
1764074536464591725,2025-11-25 18:12:16.461,-1.356000,1.757000,38.802000,0.277700,-0.174900,0.153100,0.273000,0.260000,-10.111000,-0.001218,0.003260,0.000979
1764074536486558558,2025-11-25 18:12:16.483,-1.359000,1.761000,38.806000,0.275900,-0.172900,0.154000,0.322000,0.219000,-10.111000,-0.000918,0.003306,0.003088
1764074536514460947,2025-11-25 18:12:16.511,-1.360000,1.765000,38.810000,0.275000,-0.172900,0.149700,0.301000,0.248000,-10.104000,0.000182,0.002864,0.003151
1764074536538084891,2025-11-25 18:12:16.535,-1.360000,1.769000,38.814000,0.276800,-0.172900,0.153000,0.286000,0.255000,-10.090000,-0.000655,0.002374,0.001826
1764074536563822928,2025-11-25 18:12:16.561,-1.361000,1.772000,38.817000,0.275900,-0.171000,0.147600,0.357000,0.231000,-10.149000,0.000718,0.002198,0.002978
1764074536588229632,2025-11-25 18:12:16.584,-1.361000,1.775000,38.817000,0.274900,-0.177700,0.152900,0.318000,0.254000,-10.129000,-0.000985,0.001458,0.002687
1764074536614350410,2025-11-25 18:12:16.611,-1.360000,1.779000,38.821000,0.274100,-0.170000,0.150700,0.300000,0.239000,-10.130000,0.000553,0.000919,0.001602
1764074536639000558,2025-11-25 18:12:16.636,-1.359000,1.779000,38.823000,0.275800,-0.176700,0.153000,0.339000,0.211000,-10.125000,0.001888,0.000800,0.003868
1764074536661967039,2025-11-25 18:12:16.659,-1.356000,1.781000,38.825000,0.275900,-0.171000,0.149700,0.329000,0.248000,-10.079000,0.000831,0.001006,0.000955
1764074536688394373,2025-11-25 18:12:16.685,-1.355000,1.781000,38.827000,0.276900,-0.170000,0.149800,0.347000,0.193000,-10.156000,0.001511,-0.000253,0.002105
1764074536712597799,2025-11-25 18:12:16.709,-1.353000,1.780000,38.829000,0.275800,-0.174800,0.147600,0.321000,0.264000,-10.095000,0.000550,-0.001448,0.002348
1764074536739725947,2025-11-25 18:12:16.736,-1.352000,1.780000,38.835000,0.275000,-0.171900,0.148600,0.302000,0.248000,-10.130000,0.001141,-0.000362,0.002094
1764074536765594169,2025-11-25 18:12:16.762,-1.350000,1.779000,38.836000,0.275100,-0.168100,0.152900,0.351000,0.216000,-10.125000,0.001083,-0.000847,0.001783
1764074536788195187,2025-11-25 18:12:16.784,-1.349000,1.777000,38.834000,0.276000,-0.169000,0.152900,0.307000,0.235000,-10.097000,0.000038,-0.000823,0.002166
1764074536815252502,2025-11-25 18:12:16.811,-1.348000,1.776000,38.839000,0.275900,-0.171000,0.150800,0.315000,0.230000,-10.117000,-0.000811,-0.001947,0.001789
1764074536841720391,2025-11-25 18:12:16.838,-1.348000,1.773000,38.840000,0.275000,-0.171000,0.150700,0.316000,0.235000,-10.127000,-0.000280,-0.001302,0.003070
1764074536863564632,2025-11-25 18:12:16.860,-1.348000,1.771000,38.841000,0.275900,-0.171900,0.151900,0.315000,0.285000,-10.087000,0.000173,-0.002341,0.000920
1764074536888859373,2025-11-25 18:12:16.885,-1.350000,1.769000,38.845000,0.275900,-0.173900,0.152900,0.318000,0.238000,-10.128000,-0.001461,-0.001026,0.001440
1764074536914669132,2025-11-25 18:12:16.911,-1.351000,1.767000,38.850000,0.275900,-0.173900,0.151900,0.284000,0.239000,-10.128000,0.000653,-0.002155,0.001762
1764074536939952410,2025-11-25 18:12:16.937,-1.352000,1.764000,38.853000,0.277700,-0.172900,0.150900,0.310000,0.251000,-10.092000,-0.000275,-0.002177,0.001156
1764074536964029169,2025-11-25 18:12:16.961,-1.354000,1.761000,38.855000,0.275900,-0.171000,0.147600,0.296000,0.235000,-10.119000,-0.001796,-0.001773,0.001392
1764074536988413947,2025-11-25 18:12:16.984,-1.354000,1.759000,38.856000,0.275100,-0.165200,0.149600,0.313000,0.230000,-10.152000,-0.000510,-0.001580,0.000889
1764074537014581280,2025-11-25 18:12:17.011,-1.355000,1.756000,38.858000,0.277900,-0.165200,0.150800,0.346000,0.230000,-10.128000,-0.000064,-0.001983,0.000614
1764074537077671965,2025-11-25 18:12:17.075,-1.357000,1.752000,38.863000,0.275900,-0.170000,0.148600,0.312000,0.270000,-10.143000,0.000216,-0.001725,0.000670
1764074537087311669,2025-11-25 18:12:17.084,-1.357000,1.749000,38.863000,0.275000,-0.171900,0.150700,0.335000,0.251000,-10.130000,-0.001648,-0.000793,0.001572
1764074537115633632,2025-11-25 18:12:17.113,-1.357000,1.748000,38.866000,0.277700,-0.172900,0.149800,0.304000,0.238000,-10.122000,-0.000183,-0.002154,0.002922
1764074537138587891,2025-11-25 18:12:17.135,-1.357000,1.746000,38.869000,0.277700,-0.172900,0.148800,0.315000,0.229000,-10.127000,-0.000232,-0.000680,0.001777
1764074537163038798,2025-11-25 18:12:17.160,-1.357000,1.746000,38.872000,0.275000,-0.172900,0.151800,0.282000,0.237000,-10.129000,-0.000887,-0.000512,0.002195
1764074537187258928,2025-11-25 18:12:17.184,-1.357000,1.744000,38.873000,0.277000,-0.165200,0.151900,0.289000,0.243000,-10.137000,0.000228,0.000697,0.002080
1764074537215448558,2025-11-25 18:12:17.212,-1.356000,1.743000,38.879000,0.276000,-0.169000,0.152900,0.333000,0.247000,-10.116000,0.000311,-0.000334,0.001857
1764074537239246187,2025-11-25 18:12:17.236,-1.356000,1.744000,38.879000,0.275000,-0.173800,0.154000,0.313000,0.244000,-10.122000,0.000440,0.000905,0.002573
1764074537264704446,2025-11-25 18:12:17.261,-1.356000,1.745000,38.881000,0.274000,-0.174800,0.152900,0.315000,0.267000,-10.121000,0.000293,0.001855,0.002547
1764074537288875835,2025-11-25 18:12:17.285,-1.355000,1.746000,38.885000,0.276700,-0.176800,0.156200,0.311000,0.242000,-10.106000,0.000082,0.001632,0.002036
1764074537315024261,2025-11-25 18:12:17.312,-1.355000,1.748000,38.891000,0.275800,-0.174800,0.150800,0.323000,0.255000,-10.106000,0.001016,0.000723,0.002704
1764074537339902076,2025-11-25 18:12:17.337,-1.356000,1.751000,38.894000,0.277700,-0.172000,0.148800,0.311000,0.238000,-10.076000,0.000529,0.001196,0.002106
1764074537363596298,2025-11-25 18:12:17.361,-1.356000,1.754000,38.895000,0.275800,-0.175800,0.153000,0.291000,0.249000,-10.094000,0.000164,0.002212,0.002362
1764074537385513557,2025-11-25 18:12:17.383,-1.355000,1.756000,38.901000,0.273100,-0.173800,0.151700,0.327000,0.213000,-10.095000,-0.000250,0.001753,0.002753
1764074537413857113,2025-11-25 18:12:17.410,-1.356000,1.758000,38.900000,0.277700,-0.172900,0.150900,0.299000,0.255000,-10.130000,0.000158,0.001265,0.001268
1764074537440698168,2025-11-25 18:12:17.438,-1.357000,1.761000,38.903000,0.274100,-0.169000,0.151700,0.329000,0.239000,-10.130000,-0.000980,0.001583,0.002113
1764074537461798576,2025-11-25 18:12:17.459,-1.358000,1.764000,38.903000,0.275000,-0.173800,0.154000,0.328000,0.227000,-10.131000,-0.000568,0.001751,0.002752
1764074537489009391,2025-11-25 18:12:17.485,-1.358000,1.766000,38.907000,0.275000,-0.172900,0.150800,0.303000,0.269000,-10.094000,-0.000370,0.001375,0.001233
1764074537515308613,2025-11-25 18:12:17.511,-1.360000,1.769000,38.908000,0.275900,-0.171000,0.150800,0.324000,0.229000,-10.095000,-0.000939,0.001726,0.001482
1764074537539791872,2025-11-25 18:12:17.537,-1.360000,1.771000,38.908000,0.276800,-0.173900,0.148700,0.316000,0.246000,-10.118000,-0.000556,0.002901,0.001406
1764074537564101705,2025-11-25 18:12:17.561,-1.361000,1.773000,38.911000,0.274000,-0.173800,0.149700,0.286000,0.255000,-10.105000,0.000368,0.000858,0.000821
1764074537589148039,2025-11-25 18:12:17.585,-1.362000,1.775000,38.913000,0.276800,-0.174800,0.151900,0.318000,0.220000,-10.119000,-0.000903,0.001237,0.001973
1764074537615204280,2025-11-25 18:12:17.611,-1.362000,1.777000,38.917000,0.275800,-0.175800,0.148700,0.295000,0.263000,-10.148000,0.000343,0.001226,0.001748
1764074537640594668,2025-11-25 18:12:17.637,-1.363000,1.777000,38.920000,0.274000,-0.173800,0.153900,0.317000,0.246000,-10.090000,-0.000520,-0.001023,0.001098
1764074537663073668,2025-11-25 18:12:17.660,-1.363000,1.778000,38.925000,0.277700,-0.171000,0.150900,0.311000,0.228000,-10.147000,0.000034,0.000762,0.001307
1764074537687662057,2025-11-25 18:12:17.685,-1.362000,1.780000,38.924000,0.274900,-0.176700,0.149700,0.305000,0.247000,-10.136000,0.000568,0.001152,0.001286
1764074537713513668,2025-11-25 18:12:17.710,-1.361000,1.781000,38.927000,0.274000,-0.176700,0.149700,0.349000,0.232000,-10.116000,0.001364,-0.000324,0.001032
1764074537738597113,2025-11-25 18:12:17.736,-1.360000,1.781000,38.929000,0.275800,-0.174800,0.154000,0.302000,0.244000,-10.137000,0.000140,-0.000566,0.001666
1764074537762828020,2025-11-25 18:12:17.760,-1.358000,1.781000,38.928000,0.276700,-0.175800,0.149800,0.298000,0.256000,-10.096000,0.000237,-0.000912,0.000849
1764074537788305983,2025-11-25 18:12:17.784,-1.358000,1.779000,38.931000,0.276800,-0.172900,0.150900,0.333000,0.231000,-10.157000,0.001549,-0.000401,0.001899
1764074537813589076,2025-11-25 18:12:17.810,-1.357000,1.778000,38.934000,0.275000,-0.172900,0.147600,0.286000,0.268000,-10.114000,0.000677,-0.000243,0.002118
1764074537840403668,2025-11-25 18:12:17.838,-1.357000,1.777000,38.936000,0.276800,-0.172000,0.151900,0.330000,0.239000,-10.126000,0.000541,-0.000643,0.000448
1764074537862515483,2025-11-25 18:12:17.859,-1.356000,1.775000,38.938000,0.275000,-0.171900,0.148600,0.303000,0.251000,-10.106000,0.000878,-0.002037,0.001950
1764074537888372576,2025-11-25 18:12:17.885,-1.355000,1.775000,38.941000,0.275000,-0.171900,0.147600,0.341000,0.247000,-10.112000,0.000500,-0.000860,0.000982
1764074537913765965,2025-11-25 18:12:17.910,-1.354000,1.772000,38.943000,0.275900,-0.173900,0.155100,0.328000,0.254000,-10.105000,0.000749,-0.001407,0.000587
1764074537941305872,2025-11-25 18:12:17.938,-1.354000,1.770000,38.946000,0.275000,-0.170000,0.147500,0.315000,0.227000,-10.121000,0.000963,-0.001832,0.002461
1764074537962210724,2025-11-25 18:12:17.959,-1.354000,1.768000,38.948000,0.276000,-0.169100,0.148600,0.319000,0.227000,-10.096000,0.000217,-0.001704,0.001100
1764074537987631020,2025-11-25 18:12:17.984,-1.354000,1.764000,38.947000,0.275000,-0.172900,0.152900,0.308000,0.244000,-10.118000,-0.001605,-0.002879,0.001630
1764074538020859724,2025-11-25 18:12:18.014,-1.354000,1.761000,38.950000,0.275900,-0.173900,0.151900,0.285000,0.245000,-10.140000,0.000733,-0.001983,0.001775
1764074538080163835,2025-11-25 18:12:18.078,-1.356000,1.754000,38.953000,0.275900,-0.171900,0.150800,0.285000,0.252000,-10.138000,-0.000092,-0.002041,0.001992
1764074538089936853,2025-11-25 18:12:18.088,-1.357000,1.751000,38.955000,0.275800,-0.174800,0.150800,0.323000,0.233000,-10.127000,-0.000056,-0.002944,0.001842
1764074538114381261,2025-11-25 18:12:18.111,-1.357000,1.747000,38.960000,0.277600,-0.177800,0.150900,0.309000,0.254000,-10.126000,-0.000465,-0.000687,-0.000458
1764074538138610483,2025-11-25 18:12:18.135,-1.358000,1.745000,38.963000,0.275900,-0.173900,0.150800,0.274000,0.239000,-10.094000,-0.001178,-0.002537,0.001884
1764074538164591187,2025-11-25 18:12:18.161,-1.358000,1.741000,38.963000,0.276800,-0.172900,0.148700,0.337000,0.243000,-10.131000,-0.000260,-0.001649,0.001143
1764074538187651464,2025-11-25 18:12:18.184,-1.359000,1.740000,38.962000,0.276800,-0.172000,0.145500,0.269000,0.235000,-10.091000,-0.000625,-0.000679,0.001126
1764074538211306612,2025-11-25 18:12:18.208,-1.360000,1.740000,38.965000,0.276800,-0.172900,0.150900,0.302000,0.219000,-10.119000,-0.000367,0.000039,0.001947
1764074538240293390,2025-11-25 18:12:18.237,-1.361000,1.738000,38.966000,0.275000,-0.171900,0.149700,0.315000,0.275000,-10.140000,-0.001107,0.000338,-0.000325
1764074538263253501,2025-11-25 18:12:18.260,-1.362000,1.739000,38.965000,0.275000,-0.170000,0.149700,0.283000,0.250000,-10.113000,-0.000644,0.000302,-0.000587
1764074538288868112,2025-11-25 18:12:18.286,-1.364000,1.739000,38.966000,0.275900,-0.172900,0.149700,0.315000,0.237000,-10.131000,-0.001168,-0.000460,0.001273
1764074538311052705,2025-11-25 18:12:18.308,-1.366000,1.740000,38.966000,0.274000,-0.173800,0.152900,0.302000,0.277000,-10.133000,-0.001395,0.000780,0.000150
1764074538340420927,2025-11-25 18:12:18.337,-1.368000,1.744000,38.967000,0.275800,-0.175800,0.155100,0.285000,0.219000,-10.115000,-0.001188,0.002178,0.001032
1764074538362980872,2025-11-25 18:12:18.360,-1.368000,1.746000,38.969000,0.277800,-0.169100,0.156200,0.293000,0.248000,-10.127000,-0.000659,0.001950,0.002018
1764074538385256890,2025-11-25 18:12:18.382,-1.369000,1.749000,38.964000,0.274000,-0.174800,0.152900,0.293000,0.248000,-10.113000,-0.001066,0.002286,-0.000096
1764074538411138483,2025-11-25 18:12:18.408,-1.371000,1.752000,38.965000,0.275900,-0.173900,0.149800,0.345000,0.219000,-10.117000,-0.000519,0.002354,0.000043
1764074538440464612,2025-11-25 18:12:18.437,-1.371000,1.755000,38.967000,0.274000,-0.176700,0.151800,0.299000,0.244000,-10.174000,0.000301,0.001853,0.001283
1764074538463042001,2025-11-25 18:12:18.460,-1.371000,1.759000,38.969000,0.277700,-0.173900,0.150900,0.323000,0.259000,-10.139000,0.000370,0.001685,0.000010
1764074538488603353,2025-11-25 18:12:18.486,-1.372000,1.763000,38.971000,0.278600,-0.174900,0.153100,0.324000,0.217000,-10.145000,0.001021,0.002957,0.000951
1764074538513438797,2025-11-25 18:12:18.510,-1.372000,1.767000,38.973000,0.274100,-0.171900,0.152800,0.290000,0.260000,-10.105000,0.000149,0.002140,0.000653
1764074538540901446,2025-11-25 18:12:18.538,-1.372000,1.771000,38.977000,0.275000,-0.173800,0.152900,0.331000,0.243000,-10.104000,-0.000744,0.002821,0.002083
1764074538561260020,2025-11-25 18:12:18.558,-1.372000,1.774000,38.977000,0.276800,-0.173900,0.154100,0.286000,0.240000,-10.111000,0.000978,0.001210,0.002544
1764074538588231057,2025-11-25 18:12:18.584,-1.371000,1.776000,38.981000,0.275000,-0.172900,0.150800,0.316000,0.245000,-10.094000,0.000890,0.001497,0.000849
1764074538613514760,2025-11-25 18:12:18.610,-1.371000,1.777000,38.981000,0.275900,-0.173900,0.151900,0.324000,0.220000,-10.104000,0.000539,0.000523,0.001993
1764074538640990871,2025-11-25 18:12:18.638,-1.369000,1.779000,38.984000,0.276900,-0.170000,0.149800,0.289000,0.266000,-10.114000,0.000809,0.000804,0.000641
1764074538661680723,2025-11-25 18:12:18.659,-1.368000,1.780000,38.988000,0.275800,-0.175800,0.153000,0.320000,0.223000,-10.125000,0.000838,0.000714,0.001974
1764074538688515797,2025-11-25 18:12:18.684,-1.366000,1.780000,38.993000,0.276800,-0.173900,0.149800,0.316000,0.228000,-10.089000,0.001697,0.000372,0.001856
1764074538715328038,2025-11-25 18:12:18.711,-1.362000,1.782000,38.993000,0.275000,-0.172900,0.147600,0.299000,0.234000,-10.135000,0.001356,0.000011,0.001568
1764074538740345760,2025-11-25 18:12:18.736,-1.360000,1.781000,38.996000,0.273100,-0.176700,0.149600,0.337000,0.220000,-10.100000,0.000742,-0.000945,0.001465
1764074538763215149,2025-11-25 18:12:18.760,-1.358000,1.780000,39.001000,0.277800,-0.168100,0.145500,0.311000,0.232000,-10.098000,0.000386,-0.000565,0.002316
1764074538787908094,2025-11-25 18:12:18.784,-1.355000,1.779000,39.002000,0.274100,-0.171900,0.155000,0.306000,0.254000,-10.098000,0.001600,-0.001882,0.001103
1764074538814272742,2025-11-25 18:12:18.810,-1.354000,1.776000,39.005000,0.274900,-0.174800,0.150800,0.327000,0.236000,-10.096000,0.002197,-0.000739,0.001423
1764074538841622871,2025-11-25 18:12:18.839,-1.352000,1.774000,39.006000,0.277800,-0.171000,0.150900,0.301000,0.250000,-10.123000,0.000902,-0.002394,0.002148
1764074538861444890,2025-11-25 18:12:18.858,-1.350000,1.771000,39.007000,0.274000,-0.174800,0.153900,0.337000,0.228000,-10.111000,0.000406,-0.003330,-0.000296
1764074538887596427,2025-11-25 18:12:18.884,-1.349000,1.768000,39.009000,0.274000,-0.173800,0.153900,0.325000,0.230000,-10.113000,-0.000222,-0.002072,0.001209
1764074538912278612,2025-11-25 18:12:18.909,-1.349000,1.766000,39.007000,0.275900,-0.173900,0.151900,0.331000,0.245000,-10.110000,0.000187,-0.003379,-0.000191
1764074538939251316,2025-11-25 18:12:18.936,-1.349000,1.762000,39.008000,0.276800,-0.172000,0.149800,0.326000,0.247000,-10.116000,0.000315,-0.001128,-0.000321
1764074538963379390,2025-11-25 18:12:18.960,-1.350000,1.760000,39.007000,0.276700,-0.175800,0.152000,0.306000,0.233000,-10.146000,-0.000325,-0.001662,0.001049
1764074538987533390,2025-11-25 18:12:18.984,-1.350000,1.757000,39.008000,0.275100,-0.165200,0.145400,0.312000,0.224000,-10.102000,-0.000159,-0.002675,-0.001850
1764074539015538445,2025-11-25 18:12:19.012,-1.350000,1.753000,39.007000,0.274900,-0.175800,0.148700,0.310000,0.241000,-10.147000,-0.001549,-0.001311,-0.000331
1764074539078050538,2025-11-25 18:12:19.075,-1.353000,1.750000,39.005000,0.274000,-0.173800,0.147500,0.272000,0.243000,-10.089000,-0.000994,-0.000621,-0.000719
1764074539087877742,2025-11-25 18:12:19.085,-1.355000,1.748000,39.006000,0.275900,-0.173900,0.149800,0.272000,0.237000,-10.122000,-0.003042,-0.000132,0.000590
1764074539114077371,2025-11-25 18:12:19.111,-1.357000,1.747000,39.005000,0.275000,-0.172900,0.150800,0.304000,0.253000,-10.112000,-0.001487,0.000920,0.001414
1764074539138231186,2025-11-25 18:12:19.135,-1.360000,1.746000,39.004000,0.275000,-0.171900,0.148600,0.301000,0.251000,-10.160000,-0.001706,-0.000261,0.000735
1764074539164460779,2025-11-25 18:12:19.161,-1.362000,1.747000,39.005000,0.274900,-0.173900,0.149700,0.336000,0.237000,-10.096000,-0.000959,0.001503,0.001843
1764074539188178834,2025-11-25 18:12:19.184,-1.364000,1.748000,39.003000,0.275900,-0.173900,0.150800,0.328000,0.253000,-10.104000,-0.001201,0.002097,0.001270
1764074539213522334,2025-11-25 18:12:19.209,-1.365000,1.749000,39.006000,0.274900,-0.175800,0.152900,0.295000,0.248000,-10.082000,-0.001523,0.001248,0.000866
1764074539240117390,2025-11-25 18:12:19.237,-1.367000,1.751000,39.010000,0.274900,-0.174800,0.150800,0.332000,0.225000,-10.128000,-0.001148,0.000356,0.003083
1764074539261375112,2025-11-25 18:12:19.258,-1.369000,1.752000,39.014000,0.274900,-0.174800,0.151800,0.318000,0.280000,-10.121000,-0.001111,0.001112,0.001808
1764074539287986445,2025-11-25 18:12:19.285,-1.369000,1.755000,39.018000,0.275900,-0.171000,0.149700,0.296000,0.241000,-10.100000,0.000084,0.001774,-0.000042
1764074539313194612,2025-11-25 18:12:19.309,-1.370000,1.756000,39.020000,0.276800,-0.172900,0.147700,0.330000,0.231000,-10.119000,0.000236,0.001078,0.003734
1764074539338467760,2025-11-25 18:12:19.335,-1.370000,1.758000,39.023000,0.276800,-0.171000,0.151900,0.292000,0.247000,-10.157000,-0.000219,0.002312,0.001118
1764074539363382686,2025-11-25 18:12:19.360,-1.368000,1.761000,39.026000,0.275900,-0.172900,0.149700,0.323000,0.218000,-10.117000,0.000512,0.002717,0.001127
1764074539388109667,2025-11-25 18:12:19.384,-1.368000,1.763000,39.029000,0.274900,-0.173900,0.148600,0.324000,0.241000,-10.149000,0.001192,0.000525,0.002091
1764074539410655741,2025-11-25 18:12:19.408,-1.367000,1.765000,39.030000,0.274900,-0.174800,0.150800,0.291000,0.261000,-10.101000,0.001417,0.001155,0.000397
1764074539440352075,2025-11-25 18:12:19.437,-1.366000,1.766000,39.032000,0.275900,-0.172900,0.150800,0.324000,0.210000,-10.104000,0.000663,0.001582,0.002070
1764074539461459630,2025-11-25 18:12:19.458,-1.365000,1.767000,39.035000,0.274000,-0.175800,0.151800,0.304000,0.254000,-10.078000,-0.000197,0.001489,0.000819
1764074539488047223,2025-11-25 18:12:19.484,-1.364000,1.769000,39.037000,0.275000,-0.171900,0.150800,0.305000,0.245000,-10.097000,0.001372,0.000244,-0.000309
1764074539512172852,2025-11-25 18:12:19.509,-1.364000,1.769000,39.037000,0.274000,-0.175800,0.151800,0.325000,0.223000,-10.117000,0.000899,0.001678,0.001128
1764074539537823704,2025-11-25 18:12:19.535,-1.362000,1.770000,39.035000,0.275900,-0.170000,0.144400,0.286000,0.269000,-10.144000,0.001894,0.001187,-0.000237
1764074539563315371,2025-11-25 18:12:19.560,-1.360000,1.770000,39.036000,0.274100,-0.172900,0.147500,0.338000,0.240000,-10.143000,0.000625,0.001804,-0.000704
1764074539588874149,2025-11-25 18:12:19.584,-1.358000,1.771000,39.034000,0.274000,-0.173800,0.152900,0.297000,0.243000,-10.127000,0.001760,0.001030,-0.000023
1764074539613161741,2025-11-25 18:12:19.610,-1.357000,1.772000,39.033000,0.274000,-0.173800,0.150700,0.305000,0.256000,-10.147000,0.000114,0.000374,-0.001166
1764074539639583112,2025-11-25 18:12:19.637,-1.357000,1.771000,39.032000,0.276000,-0.167100,0.151800,0.318000,0.223000,-10.133000,0.000037,-0.000204,-0.001095
1764074539662583315,2025-11-25 18:12:19.660,-1.356000,1.772000,39.031000,0.275000,-0.171900,0.151800,0.293000,0.251000,-10.140000,0.000374,0.001838,0.000197
1764074539687026019,2025-11-25 18:12:19.684,-1.356000,1.771000,39.031000,0.274000,-0.174800,0.156100,0.316000,0.237000,-10.116000,-0.000595,0.001367,-0.001472
1764074539714638093,2025-11-25 18:12:19.711,-1.356000,1.770000,39.029000,0.275000,-0.171900,0.151800,0.306000,0.238000,-10.133000,-0.000346,0.000406,0.000231
1764074539739021223,2025-11-25 18:12:19.736,-1.356000,1.772000,39.023000,0.275900,-0.172900,0.150800,0.327000,0.237000,-10.095000,-0.000721,0.000069,-0.000789
1764074539762908223,2025-11-25 18:12:19.760,-1.356000,1.771000,39.022000,0.273200,-0.171900,0.150700,0.321000,0.243000,-10.121000,-0.001728,0.000887,0.000873
1764074539787793371,2025-11-25 18:12:19.784,-1.358000,1.773000,39.022000,0.273000,-0.177700,0.148600,0.281000,0.232000,-10.135000,-0.001485,-0.000083,0.001512
1764074539811944797,2025-11-25 18:12:19.809,-1.359000,1.772000,39.020000,0.274900,-0.174800,0.149700,0.322000,0.251000,-10.120000,-0.001277,0.000399,-0.000239
1764074539837615334,2025-11-25 18:12:19.834,-1.361000,1.770000,39.018000,0.276700,-0.175800,0.155200,0.314000,0.260000,-10.109000,-0.001618,-0.000226,0.000311
1764074539861925056,2025-11-25 18:12:19.859,-1.363000,1.770000,39.018000,0.274100,-0.172900,0.155000,0.298000,0.238000,-10.119000,-0.002371,-0.000087,0.000869
1764074539887062667,2025-11-25 18:12:19.884,-1.366000,1.768000,39.021000,0.275900,-0.172900,0.149800,0.337000,0.272000,-10.143000,-0.002395,-0.001407,0.000744
1764074539916497074,2025-11-25 18:12:19.914,-1.369000,1.765000,39.022000,0.275900,-0.171900,0.152900,0.293000,0.226000,-10.125000,-0.002775,-0.001634,0.002887
1764074539937753686,2025-11-25 18:12:19.934,-1.371000,1.764000,39.023000,0.276800,-0.172000,0.150900,0.311000,0.247000,-10.111000,-0.001497,-0.000892,0.001267
1764074539964800482,2025-11-25 18:12:19.962,-1.374000,1.760000,39.028000,0.275000,-0.172900,0.151800,0.318000,0.262000,-10.093000,-0.001921,-0.002671,0.000200
1764074539987596519,2025-11-25 18:12:19.984,-1.377000,1.759000,39.027000,0.275900,-0.172900,0.151900,0.301000,0.252000,-10.107000,-0.000713,-0.000884,0.001027
1764074540012764371,2025-11-25 18:12:20.009,-1.379000,1.756000,39.026000,0.275000,-0.173800,0.154000,0.316000,0.253000,-10.103000,-0.001767,-0.001418,0.000053
1764074540083374760,2025-11-25 18:12:20.080,-1.380000,1.752000,39.029000,0.274900,-0.178700,0.154000,0.321000,0.226000,-10.154000,0.000588,-0.001989,0.001099
1764074540093329574,2025-11-25 18:12:20.091,-1.381000,1.750000,39.033000,0.278600,-0.175800,0.151000,0.321000,0.274000,-10.134000,-0.000780,-0.002273,0.000307
1764074540111112722,2025-11-25 18:12:20.108,-1.380000,1.748000,39.032000,0.274900,-0.174800,0.148700,0.298000,0.240000,-10.134000,0.001801,-0.001085,-0.001400
1764074540139610297,2025-11-25 18:12:20.137,-1.379000,1.746000,39.032000,0.275900,-0.172000,0.145500,0.321000,0.232000,-10.134000,0.000725,-0.000510,0.001204
1764074540163642500,2025-11-25 18:12:20.160,-1.379000,1.744000,39.033000,0.274900,-0.173900,0.147600,0.312000,0.263000,-10.116000,0.000672,-0.001370,-0.001806
1764074540189369926,2025-11-25 18:12:20.184,-1.377000,1.743000,39.035000,0.276800,-0.172000,0.151900,0.313000,0.237000,-10.128000,0.001586,-0.001263,-0.000297
1764074540214889167,2025-11-25 18:12:20.211,-1.374000,1.741000,39.035000,0.276900,-0.170000,0.151900,0.315000,0.251000,-10.126000,0.002448,-0.000013,-0.000931
1764074540238544722,2025-11-25 18:12:20.235,-1.372000,1.741000,39.032000,0.274100,-0.169000,0.152800,0.286000,0.236000,-10.088000,0.000446,0.000597,-0.002325
1764074540264522500,2025-11-25 18:12:20.262,-1.368000,1.741000,39.033000,0.276900,-0.168100,0.146600,0.317000,0.228000,-10.127000,0.001866,0.001106,-0.000389
1764074540288518833,2025-11-25 18:12:20.285,-1.365000,1.741000,39.027000,0.275800,-0.174800,0.147600,0.295000,0.256000,-10.117000,0.002151,0.000071,-0.001124
1764074540314893593,2025-11-25 18:12:20.311,-1.361000,1.742000,39.027000,0.275100,-0.168100,0.152900,0.297000,0.248000,-10.116000,0.002702,0.000939,-0.001589
1764074540338546000,2025-11-25 18:12:20.335,-1.360000,1.742000,39.024000,0.274900,-0.173900,0.147600,0.312000,0.219000,-10.126000,0.002170,0.000019,-0.000708
1764074540364377815,2025-11-25 18:12:20.361,-1.357000,1.743000,39.022000,0.273900,-0.179600,0.152900,0.297000,0.265000,-10.117000,0.000761,-0.000005,-0.001057
1764074540388598148,2025-11-25 18:12:20.385,-1.355000,1.745000,39.024000,0.275800,-0.174800,0.149800,0.337000,0.232000,-10.112000,0.000943,0.001736,-0.000458
1764074540414134482,2025-11-25 18:12:20.410,-1.354000,1.747000,39.023000,0.275000,-0.172900,0.151800,0.295000,0.265000,-10.111000,0.000487,0.000744,-0.000700
1764074540440021759,2025-11-25 18:12:20.437,-1.353000,1.750000,39.023000,0.275900,-0.173900,0.148700,0.289000,0.264000,-10.132000,0.001299,0.001350,-0.000302
1764074540462131815,2025-11-25 18:12:20.459,-1.352000,1.751000,39.023000,0.275000,-0.172900,0.152900,0.314000,0.214000,-10.077000,0.000343,0.001582,0.000651
1764074540487259019,2025-11-25 18:12:20.484,-1.350000,1.753000,39.020000,0.274900,-0.173900,0.149700,0.285000,0.239000,-10.105000,0.001631,0.001758,-0.000916
1764074540514481222,2025-11-25 18:12:20.511,-1.348000,1.756000,39.019000,0.275000,-0.171000,0.142200,0.317000,0.250000,-10.118000,0.000690,0.001638,0.000577
1764074540539379185,2025-11-25 18:12:20.536,-1.348000,1.757000,39.018000,0.276900,-0.168100,0.149800,0.314000,0.212000,-10.120000,0.000634,0.001011,0.000036
1764074540563609926,2025-11-25 18:12:20.560,-1.347000,1.760000,39.018000,0.276800,-0.171000,0.151900,0.289000,0.254000,-10.127000,-0.000777,0.001939,0.000190
1764074540588090222,2025-11-25 18:12:20.585,-1.347000,1.762000,39.016000,0.273300,-0.168000,0.151700,0.343000,0.236000,-10.130000,-0.000276,0.001857,0.000533
1764074540612627537,2025-11-25 18:12:20.609,-1.346000,1.765000,39.013000,0.274900,-0.175800,0.151900,0.285000,0.226000,-10.121000,0.000728,0.001903,0.000806
1764074540640009093,2025-11-25 18:12:20.637,-1.347000,1.768000,39.015000,0.275900,-0.171000,0.146500,0.335000,0.257000,-10.095000,-0.001242,0.001928,-0.000063
1764074540662031778,2025-11-25 18:12:20.659,-1.348000,1.770000,39.014000,0.275900,-0.171000,0.147600,0.310000,0.230000,-10.124000,-0.001051,0.000683,0.000476
1764074540687835204,2025-11-25 18:12:20.684,-1.348000,1.773000,39.010000,0.275800,-0.175800,0.153000,0.309000,0.226000,-10.150000,-0.001182,0.000407,-0.000759
1764074540713382204,2025-11-25 18:12:20.709,-1.350000,1.773000,39.008000,0.276800,-0.171900,0.155100,0.344000,0.254000,-10.111000,-0.000828,-0.000122,0.000298
1764074540740317611,2025-11-25 18:12:20.737,-1.352000,1.773000,39.009000,0.275000,-0.173800,0.154000,0.316000,0.255000,-10.092000,-0.002578,-0.000494,-0.000096
1764074540761116870,2025-11-25 18:12:20.758,-1.355000,1.774000,39.011000,0.275800,-0.176800,0.148700,0.333000,0.248000,-10.142000,-0.001891,-0.000104,0.000302
1764074540787752129,2025-11-25 18:12:20.785,-1.357000,1.773000,39.013000,0.275800,-0.176700,0.153000,0.334000,0.257000,-10.101000,-0.001586,-0.002120,-0.001873
1764074540813864278,2025-11-25 18:12:20.810,-1.359000,1.772000,39.012000,0.275800,-0.175800,0.153000,0.304000,0.207000,-10.079000,-0.001824,-0.002357,0.000301
1764074540839751481,2025-11-25 18:12:20.837,-1.363000,1.770000,39.011000,0.274900,-0.176700,0.151900,0.330000,0.241000,-10.102000,-0.002184,-0.002374,-0.000917
1764074540861975648,2025-11-25 18:12:20.859,-1.366000,1.766000,39.010000,0.273100,-0.176700,0.149600,0.304000,0.234000,-10.103000,-0.001653,-0.002326,-0.001043
1764074540887876555,2025-11-25 18:12:20.884,-1.370000,1.763000,39.008000,0.277700,-0.171000,0.148800,0.301000,0.227000,-10.171000,-0.002818,-0.002182,-0.000898
1764074540912560129,2025-11-25 18:12:20.909,-1.373000,1.758000,39.006000,0.276800,-0.174800,0.150900,0.342000,0.254000,-10.103000,-0.001568,-0.003432,-0.002112
1764074540938698092,2025-11-25 18:12:20.936,-1.376000,1.756000,39.003000,0.275000,-0.171000,0.152900,0.296000,0.251000,-10.129000,-0.000733,-0.002424,-0.001773
1764074540962633926,2025-11-25 18:12:20.959,-1.378000,1.751000,39.000000,0.275000,-0.172900,0.150800,0.345000,0.223000,-10.131000,-0.001415,-0.002264,-0.000945
1764074540986208852,2025-11-25 18:12:20.983,-1.380000,1.747000,38.997000,0.276800,-0.173900,0.151900,0.305000,0.259000,-10.113000,-0.001721,-0.002731,-0.002508
1764074541015265370,2025-11-25 18:12:21.012,-1.382000,1.745000,38.996000,0.275900,-0.172900,0.150800,0.322000,0.248000,-10.135000,-0.001083,-0.001473,-0.000489
1764074541079192259,2025-11-25 18:12:21.077,-1.384000,1.739000,38.991000,0.277900,-0.168100,0.166900,0.306000,0.259000,-10.133000,0.001032,-0.002024,-0.002774
1764074541089455092,2025-11-25 18:12:21.087,-1.384000,1.737000,38.983000,0.276000,-0.170000,0.154000,0.312000,0.237000,-10.144000,0.001337,-0.000159,-0.000420
1764074541113570185,2025-11-25 18:12:21.110,-1.385000,1.735000,38.983000,0.275800,-0.174800,0.150800,0.301000,0.254000,-10.104000,0.001025,-0.000400,-0.001712
1764074541136527500,2025-11-25 18:12:21.133,-1.382000,1.735000,38.981000,0.275000,-0.173800,0.152900,0.279000,0.263000,-10.086000,0.002019,-0.000866,-0.001499
1764074541162958111,2025-11-25 18:12:21.160,-1.382000,1.734000,38.976000,0.275900,-0.173900,0.150800,0.295000,0.229000,-10.127000,0.000340,0.000346,-0.000686
1764074541187305666,2025-11-25 18:12:21.184,-1.379000,1.735000,38.977000,0.275900,-0.172900,0.152900,0.275000,0.270000,-10.127000,0.001554,0.001978,-0.002137
1764074541212701055,2025-11-25 18:12:21.209,-1.377000,1.737000,38.977000,0.275000,-0.171900,0.148600,0.298000,0.237000,-10.125000,0.001203,0.002770,0.000161
1764074541238089314,2025-11-25 18:12:21.235,-1.373000,1.739000,38.976000,0.274900,-0.175800,0.149700,0.306000,0.238000,-10.089000,0.001934,0.003226,-0.000248
1764074541263796444,2025-11-25 18:12:21.261,-1.370000,1.744000,38.973000,0.276900,-0.170000,0.150800,0.266000,0.259000,-10.100000,0.002283,0.003628,-0.001295
1764074541288098425,2025-11-25 18:12:21.285,-1.367000,1.747000,38.971000,0.273100,-0.173800,0.147500,0.316000,0.247000,-10.111000,0.002301,0.002705,-0.000565
1764074541314928944,2025-11-25 18:12:21.311,-1.364000,1.751000,38.970000,0.275000,-0.170000,0.149700,0.305000,0.246000,-10.143000,0.002204,0.004030,-0.000515
1764074541336655722,2025-11-25 18:12:21.334,-1.360000,1.756000,38.971000,0.275100,-0.166100,0.148600,0.330000,0.232000,-10.073000,0.002332,0.003246,-0.001118
1764074541365027296,2025-11-25 18:12:21.362,-1.358000,1.760000,38.970000,0.274100,-0.170000,0.152800,0.325000,0.218000,-10.110000,0.002407,0.002733,-0.000190
1764074541386534925,2025-11-25 18:12:21.383,-1.354000,1.765000,38.969000,0.275100,-0.169000,0.151800,0.285000,0.250000,-10.111000,0.001041,0.002350,0.000517
1764074541413177666,2025-11-25 18:12:21.409,-1.352000,1.768000,38.967000,0.275900,-0.171000,0.145500,0.316000,0.216000,-10.112000,0.002045,0.000480,-0.001412
1764074541439052574,2025-11-25 18:12:21.436,-1.349000,1.771000,38.966000,0.273200,-0.171900,0.152800,0.319000,0.210000,-10.123000,0.002566,0.001364,0.000383
1764074541463876666,2025-11-25 18:12:21.460,-1.347000,1.773000,38.964000,0.275000,-0.173900,0.150800,0.303000,0.230000,-10.096000,0.000804,0.001613,-0.001787
1764074541488851870,2025-11-25 18:12:21.485,-1.345000,1.773000,38.961000,0.274900,-0.174800,0.147600,0.317000,0.211000,-10.097000,0.000545,-0.000651,-0.001608
1764074541513666777,2025-11-25 18:12:21.510,-1.344000,1.774000,38.958000,0.275000,-0.169000,0.146500,0.300000,0.236000,-10.093000,-0.000320,0.000724,-0.001079
1764074541538177759,2025-11-25 18:12:21.534,-1.344000,1.775000,38.952000,0.275000,-0.169000,0.148600,0.325000,0.235000,-10.121000,-0.001069,-0.000119,-0.001270
1764074541563698425,2025-11-25 18:12:21.560,-1.343000,1.772000,38.949000,0.274000,-0.173800,0.149700,0.314000,0.225000,-10.154000,-0.001379,-0.001101,-0.002013
1764074541588564351,2025-11-25 18:12:21.585,-1.345000,1.770000,38.949000,0.276800,-0.173900,0.150900,0.310000,0.222000,-10.120000,-0.000649,-0.002345,-0.001570
1764074541613429833,2025-11-25 18:12:21.610,-1.346000,1.768000,38.947000,0.277700,-0.173900,0.150900,0.345000,0.242000,-10.112000,-0.002286,-0.001707,-0.002502
1764074541641115944,2025-11-25 18:12:21.638,-1.347000,1.766000,38.940000,0.275900,-0.171000,0.147600,0.309000,0.248000,-10.132000,-0.001434,-0.001138,-0.001352
1764074541661018684,2025-11-25 18:12:21.658,-1.349000,1.763000,38.936000,0.275900,-0.173900,0.150800,0.308000,0.237000,-10.124000,-0.001053,-0.003052,-0.001442
1764074541688624925,2025-11-25 18:12:21.684,-1.351000,1.760000,38.936000,0.274200,-0.168100,0.150700,0.322000,0.238000,-10.115000,-0.002068,-0.001693,-0.002542
1764074541713815610,2025-11-25 18:12:21.709,-1.354000,1.758000,38.934000,0.275000,-0.171900,0.149700,0.291000,0.236000,-10.133000,-0.002019,-0.001779,-0.001017
1764074541740886333,2025-11-25 18:12:21.738,-1.357000,1.755000,38.933000,0.275000,-0.171900,0.148600,0.304000,0.230000,-10.088000,-0.001860,-0.001771,-0.001580
1764074541762083796,2025-11-25 18:12:21.759,-1.359000,1.752000,38.932000,0.275900,-0.171900,0.150800,0.288000,0.240000,-10.129000,-0.000881,-0.002205,-0.002076
1764074541788010777,2025-11-25 18:12:21.784,-1.362000,1.749000,38.930000,0.276800,-0.171000,0.154000,0.324000,0.240000,-10.107000,-0.001644,-0.001047,-0.001952
1764074541814494592,2025-11-25 18:12:21.810,-1.365000,1.747000,38.930000,0.276000,-0.170000,0.150800,0.316000,0.216000,-10.117000,-0.002094,-0.001058,-0.002404
1764074541838146555,2025-11-25 18:12:21.835,-1.368000,1.747000,38.924000,0.276800,-0.173900,0.153000,0.320000,0.221000,-10.152000,-0.002285,0.000214,-0.000302
1764074541863529666,2025-11-25 18:12:21.860,-1.371000,1.746000,38.920000,0.276000,-0.167100,0.151800,0.288000,0.241000,-10.107000,-0.002544,-0.000912,-0.000671
1764074541887973370,2025-11-25 18:12:21.884,-1.373000,1.746000,38.914000,0.275800,-0.174800,0.151900,0.282000,0.240000,-10.113000,-0.002017,0.000332,-0.002547
1764074541913849851,2025-11-25 18:12:21.910,-1.376000,1.745000,38.912000,0.275800,-0.175800,0.149800,0.322000,0.228000,-10.099000,-0.001937,0.000069,-0.000610
1764074541940799166,2025-11-25 18:12:21.938,-1.377000,1.745000,38.912000,0.274900,-0.174800,0.154000,0.306000,0.258000,-10.131000,-0.000603,0.000287,-0.001440
1764074541962727703,2025-11-25 18:12:21.960,-1.378000,1.745000,38.912000,0.274900,-0.175800,0.155100,0.296000,0.241000,-10.143000,-0.001676,-0.000049,-0.001302
1764074541986936444,2025-11-25 18:12:21.984,-1.380000,1.746000,38.913000,0.274100,-0.170000,0.153900,0.333000,0.245000,-10.115000,0.000201,0.001620,-0.000998
1764074542015231277,2025-11-25 18:12:22.012,-1.380000,1.747000,38.908000,0.275900,-0.173900,0.151900,0.304000,0.277000,-10.142000,0.000190,-0.000399,-0.001860
1764074542075544036,2025-11-25 18:12:22.073,-1.380000,1.750000,38.907000,0.274900,-0.176700,0.151900,0.329000,0.242000,-10.098000,0.000279,-0.000480,-0.000452
1764074542085184869,2025-11-25 18:12:22.082,-1.380000,1.753000,38.906000,0.275800,-0.175800,0.150800,0.299000,0.260000,-10.093000,-0.000427,0.000408,-0.003200
1764074542115015832,2025-11-25 18:12:22.111,-1.379000,1.754000,38.903000,0.274000,-0.173800,0.149700,0.322000,0.221000,-10.119000,0.001244,0.000989,-0.001146
1764074542139576295,2025-11-25 18:12:22.137,-1.378000,1.755000,38.899000,0.275000,-0.171900,0.150800,0.311000,0.247000,-10.131000,0.002442,0.001813,-0.000964
1764074542162638147,2025-11-25 18:12:22.160,-1.377000,1.757000,38.897000,0.274100,-0.171900,0.147500,0.302000,0.230000,-10.133000,0.001167,-0.000150,-0.002699
1764074542187640351,2025-11-25 18:12:22.184,-1.374000,1.757000,38.893000,0.278600,-0.174900,0.155200,0.334000,0.211000,-10.115000,0.002786,0.001678,-0.001197
1764074542215066943,2025-11-25 18:12:22.212,-1.371000,1.759000,38.889000,0.274100,-0.171900,0.152900,0.292000,0.261000,-10.096000,0.001060,0.001054,-0.001521
1764074542239843647,2025-11-25 18:12:22.237,-1.369000,1.759000,38.887000,0.276800,-0.171000,0.153000,0.332000,0.231000,-10.091000,0.001847,-0.000157,-0.002905
1764074542263773592,2025-11-25 18:12:22.261,-1.366000,1.758000,38.888000,0.273100,-0.175700,0.150700,0.312000,0.251000,-10.154000,0.001631,-0.000621,-0.001698
1764074542287971943,2025-11-25 18:12:22.284,-1.364000,1.757000,38.886000,0.276800,-0.172900,0.154100,0.304000,0.262000,-10.113000,0.002186,-0.001044,-0.003168
1764074542313623554,2025-11-25 18:12:22.310,-1.362000,1.757000,38.880000,0.277700,-0.174900,0.153100,0.344000,0.230000,-10.104000,0.002003,-0.000573,-0.002023
1764074542339165091,2025-11-25 18:12:22.336,-1.359000,1.755000,38.876000,0.275900,-0.172900,0.149800,0.286000,0.251000,-10.151000,0.001847,-0.001252,-0.001263
1764074542364542554,2025-11-25 18:12:22.361,-1.356000,1.755000,38.870000,0.275000,-0.172900,0.152900,0.334000,0.222000,-10.138000,0.001192,-0.000050,-0.003383
1764074542389239851,2025-11-25 18:12:22.384,-1.353000,1.753000,38.867000,0.274900,-0.174800,0.149700,0.306000,0.234000,-10.112000,0.002134,-0.000722,-0.001957
1764074542414017888,2025-11-25 18:12:22.410,-1.350000,1.753000,38.864000,0.276000,-0.168100,0.151800,0.279000,0.228000,-10.114000,0.002512,-0.000645,-0.001844
1764074542440201277,2025-11-25 18:12:22.437,-1.349000,1.751000,38.858000,0.275000,-0.172900,0.149700,0.320000,0.223000,-10.139000,0.000851,0.000285,-0.003607
1764074542463473591,2025-11-25 18:12:22.460,-1.347000,1.751000,38.856000,0.275900,-0.173900,0.148700,0.296000,0.237000,-10.109000,0.000909,-0.000804,-0.001627
1764074542488071591,2025-11-25 18:12:22.484,-1.346000,1.751000,38.851000,0.276800,-0.171000,0.149800,0.341000,0.226000,-10.117000,0.000654,-0.000758,-0.002456
1764074542511102832,2025-11-25 18:12:22.508,-1.347000,1.751000,38.848000,0.277700,-0.173900,0.147700,0.327000,0.220000,-10.097000,-0.001139,0.000853,-0.002757
1764074542541298610,2025-11-25 18:12:22.539,-1.348000,1.751000,38.846000,0.276900,-0.166200,0.149700,0.292000,0.208000,-10.091000,-0.000414,-0.000533,0.000368
1764074542562384314,2025-11-25 18:12:22.560,-1.350000,1.751000,38.841000,0.275100,-0.169000,0.149700,0.317000,0.231000,-10.092000,-0.001075,0.000813,-0.002738
1764074542588796647,2025-11-25 18:12:22.585,-1.351000,1.751000,38.836000,0.274900,-0.174800,0.150800,0.292000,0.226000,-10.101000,-0.001204,0.001149,-0.002186
1764074542614289980,2025-11-25 18:12:22.612,-1.352000,1.751000,38.835000,0.275900,-0.172900,0.147600,0.301000,0.241000,-10.130000,-0.001619,0.000682,-0.000830
1764074542639148165,2025-11-25 18:12:22.637,-1.355000,1.751000,38.832000,0.274900,-0.175800,0.156100,0.332000,0.218000,-10.121000,-0.002791,-0.000197,-0.002197
1764074542663015739,2025-11-25 18:12:22.660,-1.357000,1.753000,38.830000,0.274000,-0.174800,0.149700,0.296000,0.248000,-10.122000,-0.001853,0.001208,-0.002932
1764074542687921980,2025-11-25 18:12:22.685,-1.361000,1.754000,38.826000,0.276800,-0.174800,0.150900,0.322000,0.233000,-10.118000,-0.002774,0.001159,-0.001656
1764074542715155462,2025-11-25 18:12:22.712,-1.364000,1.755000,38.824000,0.277700,-0.174900,0.150900,0.304000,0.264000,-10.076000,-0.001695,0.001106,-0.003455
1764074542739357073,2025-11-25 18:12:22.737,-1.369000,1.757000,38.820000,0.275900,-0.172900,0.151900,0.321000,0.232000,-10.123000,-0.002559,0.000801,-0.002483
1764074542762343813,2025-11-25 18:12:22.760,-1.373000,1.758000,38.814000,0.276800,-0.174900,0.149800,0.335000,0.264000,-10.130000,-0.002226,0.001224,-0.002083
1764074542787925702,2025-11-25 18:12:22.785,-1.376000,1.760000,38.811000,0.275000,-0.171000,0.150800,0.290000,0.245000,-10.123000,-0.002112,0.000631,-0.002032
1764074542813890313,2025-11-25 18:12:22.810,-1.379000,1.762000,38.805000,0.274200,-0.166100,0.145300,0.328000,0.234000,-10.150000,-0.001274,0.000785,-0.000890
1764074542841961925,2025-11-25 18:12:22.838,-1.382000,1.763000,38.801000,0.273200,-0.170000,0.152800,0.290000,0.269000,-10.126000,-0.001619,0.000525,-0.002913
1764074542860815369,2025-11-25 18:12:22.858,-1.384000,1.764000,38.799000,0.276900,-0.169100,0.149800,0.318000,0.241000,-10.102000,-0.000203,0.000379,-0.003411
1764074542889339684,2025-11-25 18:12:22.886,-1.384000,1.764000,38.794000,0.276800,-0.172900,0.150900,0.320000,0.250000,-10.128000,0.000191,0.000989,-0.002174
1764074542915186869,2025-11-25 18:12:22.912,-1.384000,1.764000,38.793000,0.277700,-0.172900,0.148800,0.286000,0.262000,-10.111000,0.000889,0.001075,-0.002933
1764074542939972165,2025-11-25 18:12:22.937,-1.383000,1.764000,38.788000,0.276800,-0.174800,0.151900,0.325000,0.206000,-10.074000,0.001653,0.000160,-0.002770
1764074542964918184,2025-11-25 18:12:22.962,-1.381000,1.765000,38.786000,0.275900,-0.171900,0.152900,0.313000,0.241000,-10.126000,0.001447,-0.000216,-0.001656
1764074542988726110,2025-11-25 18:12:22.985,-1.378000,1.766000,38.781000,0.275000,-0.171900,0.154000,0.300000,0.257000,-10.129000,0.001726,-0.000453,-0.002416
1764074543012832147,2025-11-25 18:12:23.010,-1.375000,1.765000,38.780000,0.275900,-0.172900,0.152900,0.314000,0.249000,-10.141000,0.002187,-0.000766,-0.003160
1764074543081144610,2025-11-25 18:12:23.079,-1.368000,1.765000,38.772000,0.276800,-0.174800,0.155100,0.318000,0.238000,-10.151000,0.002812,-0.000354,-0.001996
1764074543090349850,2025-11-25 18:12:23.088,-1.365000,1.765000,38.769000,0.277800,-0.167100,0.156200,0.336000,0.238000,-10.128000,0.002768,-0.000836,-0.000535
1764074543112839517,2025-11-25 18:12:23.110,-1.362000,1.766000,38.765000,0.274200,-0.168000,0.152800,0.301000,0.244000,-10.109000,0.002159,-0.000025,-0.002429
1764074543139260147,2025-11-25 18:12:23.136,-1.359000,1.765000,38.761000,0.275800,-0.174800,0.153000,0.339000,0.215000,-10.114000,0.001870,-0.000160,-0.003026
1764074543163707739,2025-11-25 18:12:23.161,-1.356000,1.764000,38.759000,0.274000,-0.176700,0.153900,0.319000,0.242000,-10.160000,0.001952,-0.000320,-0.002000
1764074543187556017,2025-11-25 18:12:23.184,-1.353000,1.765000,38.758000,0.277600,-0.176800,0.154100,0.305000,0.239000,-10.129000,0.000790,0.000172,-0.003500
1764074543210885091,2025-11-25 18:12:23.208,-1.352000,1.763000,38.754000,0.275800,-0.174800,0.150800,0.312000,0.218000,-10.126000,0.000192,0.000068,-0.001470
1764074543239402535,2025-11-25 18:12:23.237,-1.351000,1.763000,38.751000,0.277700,-0.172900,0.153000,0.286000,0.246000,-10.102000,0.000573,-0.000628,-0.002350
1764074543263185369,2025-11-25 18:12:23.260,-1.352000,1.761000,38.747000,0.276800,-0.172900,0.157300,0.323000,0.230000,-10.100000,-0.000648,-0.000876,-0.003480
1764074543288394832,2025-11-25 18:12:23.285,-1.353000,1.760000,38.742000,0.277700,-0.172000,0.155200,0.294000,0.248000,-10.164000,-0.001046,0.000062,-0.002168
1764074543312544517,2025-11-25 18:12:23.309,-1.354000,1.759000,38.739000,0.274100,-0.171900,0.151800,0.323000,0.236000,-10.117000,-0.001339,-0.001360,-0.003195
1764074543339859665,2025-11-25 18:12:23.337,-1.357000,1.757000,38.734000,0.277700,-0.174900,0.153000,0.323000,0.229000,-10.129000,-0.002218,0.000120,-0.002749
1764074543363699776,2025-11-25 18:12:23.361,-1.359000,1.757000,38.733000,0.277700,-0.172900,0.149800,0.283000,0.243000,-10.123000,-0.001448,-0.001259,-0.001650
1764074543388000424,2025-11-25 18:12:23.385,-1.363000,1.755000,38.728000,0.275900,-0.173900,0.154000,0.334000,0.234000,-10.096000,-0.001893,-0.000754,-0.003452
1764074543413341924,2025-11-25 18:12:23.410,-1.366000,1.753000,38.721000,0.275800,-0.174800,0.148700,0.308000,0.236000,-10.084000,-0.002519,-0.001556,-0.004662
1764074543440411776,2025-11-25 18:12:23.438,-1.368000,1.751000,38.718000,0.277800,-0.170000,0.154100,0.319000,0.261000,-10.108000,-0.001136,-0.000629,-0.002521
1764074543462299702,2025-11-25 18:12:23.459,-1.371000,1.749000,38.715000,0.274900,-0.173800,0.151800,0.333000,0.259000,-10.051000,-0.002578,-0.002105,-0.003375
1764074543487745443,2025-11-25 18:12:23.484,-1.375000,1.748000,38.712000,0.276700,-0.176800,0.151900,0.314000,0.259000,-10.112000,-0.003189,-0.000482,-0.003138
1764074543513520980,2025-11-25 18:12:23.510,-1.376000,1.747000,38.708000,0.275900,-0.171900,0.152900,0.315000,0.263000,-10.138000,-0.000988,-0.000357,-0.002397
1764074543540229683,2025-11-25 18:12:23.537,-1.376000,1.743000,38.704000,0.275900,-0.170000,0.152900,0.302000,0.246000,-10.099000,-0.000596,-0.002082,-0.002892
1764074543560681369,2025-11-25 18:12:23.558,-1.375000,1.743000,38.700000,0.275100,-0.165200,0.148600,0.319000,0.250000,-10.123000,-0.000679,-0.001506,-0.002345
1764074543589797739,2025-11-25 18:12:23.584,-1.375000,1.740000,38.696000,0.275900,-0.171900,0.149700,0.342000,0.264000,-10.125000,0.000008,-0.001249,-0.002325
1764074543616183276,2025-11-25 18:12:23.614,-1.375000,1.739000,38.694000,0.275800,-0.173900,0.146500,0.307000,0.257000,-10.109000,0.000847,-0.000271,-0.002926
1764074543638250591,2025-11-25 18:12:23.635,-1.375000,1.738000,38.695000,0.276700,-0.175800,0.148700,0.326000,0.224000,-10.111000,0.000861,-0.001891,-0.000881
1764074543663172202,2025-11-25 18:12:23.660,-1.372000,1.736000,38.691000,0.275900,-0.173900,0.149700,0.286000,0.272000,-10.110000,0.002083,-0.000007,-0.002638
1764074543689758331,2025-11-25 18:12:23.685,-1.370000,1.735000,38.689000,0.275100,-0.165200,0.147500,0.298000,0.238000,-10.103000,0.000723,-0.000754,-0.002495
1764074543713355239,2025-11-25 18:12:23.710,-1.369000,1.734000,38.687000,0.273100,-0.172900,0.147500,0.328000,0.240000,-10.127000,0.001073,0.000016,-0.002141
1764074543741837109,2025-11-25 18:12:23.738,-1.368000,1.736000,38.685000,0.276900,-0.168100,0.150800,0.277000,0.243000,-10.108000,0.001749,0.000664,-0.004435
1764074543762936480,2025-11-25 18:12:23.760,-1.366000,1.737000,38.683000,0.276800,-0.173900,0.150900,0.315000,0.234000,-10.112000,0.002789,0.001226,-0.001656
1764074543785901776,2025-11-25 18:12:23.783,-1.364000,1.736000,38.679000,0.275000,-0.170900,0.155000,0.311000,0.253000,-10.124000,0.002270,-0.000156,-0.000891
1764074543815039905,2025-11-25 18:12:23.811,-1.361000,1.737000,38.678000,0.276800,-0.174800,0.153000,0.270000,0.255000,-10.154000,0.002381,-0.000258,-0.002727
1764074543838049720,2025-11-25 18:12:23.835,-1.358000,1.736000,38.675000,0.275900,-0.171000,0.148700,0.344000,0.223000,-10.127000,0.002548,0.001404,-0.001075
1764074543863936017,2025-11-25 18:12:23.861,-1.355000,1.738000,38.670000,0.275900,-0.172900,0.146500,0.288000,0.251000,-10.133000,0.001914,0.002232,-0.002943
1764074543889356165,2025-11-25 18:12:23.885,-1.353000,1.740000,38.667000,0.277700,-0.172000,0.150900,0.299000,0.224000,-10.170000,0.000553,0.001860,-0.002622
1764074543916756591,2025-11-25 18:12:23.914,-1.353000,1.741000,38.663000,0.277700,-0.172000,0.148800,0.313000,0.243000,-10.142000,0.000074,0.002460,-0.002772
1764074543936138313,2025-11-25 18:12:23.934,-1.352000,1.745000,38.656000,0.277800,-0.168100,0.155100,0.301000,0.247000,-10.116000,0.000591,0.002214,-0.003288
1764074543963310609,2025-11-25 18:12:23.960,-1.352000,1.749000,38.655000,0.276000,-0.166200,0.148600,0.344000,0.227000,-10.097000,-0.000059,0.002471,-0.003279
1764074543988201516,2025-11-25 18:12:23.984,-1.352000,1.755000,38.648000,0.275000,-0.170000,0.149700,0.307000,0.240000,-10.114000,-0.000701,0.003199,-0.002196
1764074544014339887,2025-11-25 18:12:24.012,-1.352000,1.760000,38.640000,0.276800,-0.171900,0.153000,0.336000,0.234000,-10.122000,-0.000189,0.002644,-0.003495
1764074544081667590,2025-11-25 18:12:24.079,-1.352000,1.771000,38.633000,0.276800,-0.172900,0.150900,0.307000,0.250000,-10.112000,-0.000826,0.004195,-0.004268
1764074544090845498,2025-11-25 18:12:24.088,-1.354000,1.775000,38.631000,0.276000,-0.167100,0.154000,0.330000,0.245000,-10.145000,-0.000174,0.002700,-0.003091
1764074544111620257,2025-11-25 18:12:24.109,-1.356000,1.778000,38.628000,0.278700,-0.167200,0.150900,0.301000,0.236000,-10.124000,-0.001547,0.002435,-0.002384
1764074544138995572,2025-11-25 18:12:24.135,-1.357000,1.782000,38.623000,0.277700,-0.172900,0.150900,0.313000,0.254000,-10.137000,-0.001555,0.002509,-0.003317
1764074544164252553,2025-11-25 18:12:24.161,-1.359000,1.784000,38.621000,0.276800,-0.171000,0.153000,0.336000,0.225000,-10.115000,-0.002013,0.001098,-0.003245
1764074544188524831,2025-11-25 18:12:24.185,-1.362000,1.787000,38.617000,0.276800,-0.173900,0.153000,0.312000,0.250000,-10.139000,-0.000619,0.001099,-0.001413
1764074544212971127,2025-11-25 18:12:24.209,-1.365000,1.788000,38.609000,0.276800,-0.172000,0.151900,0.345000,0.256000,-10.131000,-0.002676,0.001224,-0.002946
1764074544239705905,2025-11-25 18:12:24.237,-1.368000,1.788000,38.606000,0.278600,-0.172900,0.153100,0.329000,0.245000,-10.128000,-0.002483,0.000763,-0.001339
1764074544263541553,2025-11-25 18:12:24.261,-1.371000,1.789000,38.603000,0.275800,-0.174800,0.153000,0.309000,0.226000,-10.129000,-0.002107,-0.001589,-0.001728
1764074544288075053,2025-11-25 18:12:24.285,-1.374000,1.787000,38.602000,0.277700,-0.171000,0.150900,0.353000,0.236000,-10.143000,-0.001089,-0.001174,-0.002976
1764074544313190683,2025-11-25 18:12:24.310,-1.377000,1.784000,38.598000,0.277800,-0.170000,0.150900,0.289000,0.246000,-10.096000,-0.002451,-0.003224,-0.002037
1764074544340292461,2025-11-25 18:12:24.337,-1.379000,1.780000,38.592000,0.277700,-0.173900,0.153000,0.312000,0.247000,-10.096000,-0.000836,-0.003381,-0.003236
1764074544361318850,2025-11-25 18:12:24.358,-1.381000,1.774000,38.587000,0.276800,-0.174800,0.151900,0.318000,0.248000,-10.138000,-0.000689,-0.003299,-0.004438
1764074544386362498,2025-11-25 18:12:24.384,-1.382000,1.771000,38.584000,0.276700,-0.175800,0.152000,0.318000,0.232000,-10.119000,0.001273,-0.003211,-0.001866
1764074544413066646,2025-11-25 18:12:24.410,-1.383000,1.765000,38.578000,0.275900,-0.173900,0.150800,0.322000,0.258000,-10.097000,-0.000195,-0.004448,-0.002002
1764074544440222405,2025-11-25 18:12:24.437,-1.383000,1.759000,38.577000,0.275000,-0.170000,0.151800,0.281000,0.253000,-10.126000,0.000299,-0.004247,-0.003266
1764074544462248683,2025-11-25 18:12:24.459,-1.383000,1.754000,38.574000,0.274100,-0.171900,0.152800,0.311000,0.248000,-10.115000,0.000356,-0.003317,-0.002588
1764074544488066572,2025-11-25 18:12:24.484,-1.382000,1.748000,38.571000,0.276000,-0.169100,0.149700,0.292000,0.253000,-10.130000,0.000983,-0.003820,-0.003963
1764074544513238072,2025-11-25 18:12:24.510,-1.381000,1.743000,38.568000,0.275800,-0.174800,0.151900,0.309000,0.233000,-10.126000,0.001464,-0.003974,-0.002373
1764074544540742664,2025-11-25 18:12:24.538,-1.378000,1.740000,38.566000,0.275900,-0.170000,0.148700,0.340000,0.262000,-10.123000,0.001901,-0.001928,-0.003005
1764074544562879757,2025-11-25 18:12:24.560,-1.375000,1.737000,38.564000,0.275800,-0.174800,0.150800,0.307000,0.275000,-10.091000,0.002308,-0.001526,-0.003727
1764074544586149572,2025-11-25 18:12:24.583,-1.373000,1.734000,38.562000,0.277800,-0.171000,0.152000,0.328000,0.236000,-10.147000,0.002609,-0.002095,-0.001905
1764074544613314405,2025-11-25 18:12:24.610,-1.370000,1.732000,38.555000,0.276700,-0.175800,0.150900,0.287000,0.272000,-10.121000,0.002495,-0.000618,-0.002646
1764074544639982405,2025-11-25 18:12:24.637,-1.366000,1.731000,38.553000,0.275900,-0.172900,0.150800,0.280000,0.230000,-10.097000,0.001984,-0.001297,-0.002656
1764074544663846664,2025-11-25 18:12:24.661,-1.363000,1.730000,38.551000,0.275900,-0.174800,0.153000,0.324000,0.243000,-10.116000,0.002052,0.000843,-0.002609
1764074544689073035,2025-11-25 18:12:24.685,-1.360000,1.730000,38.551000,0.276800,-0.172900,0.154100,0.270000,0.245000,-10.123000,0.001363,0.000709,-0.003688
1764074544714867960,2025-11-25 18:12:24.711,-1.357000,1.731000,38.544000,0.275100,-0.169000,0.148600,0.309000,0.207000,-10.148000,0.001525,0.001330,-0.001380
1764074544738352960,2025-11-25 18:12:24.736,-1.355000,1.732000,38.539000,0.277700,-0.171000,0.147700,0.311000,0.237000,-10.133000,0.001615,0.000757,-0.002574
1764074544762915090,2025-11-25 18:12:24.760,-1.353000,1.734000,38.536000,0.276800,-0.172000,0.150900,0.282000,0.251000,-10.116000,0.001060,0.000929,-0.002881
1764074544786836609,2025-11-25 18:12:24.784,-1.350000,1.735000,38.531000,0.276900,-0.167200,0.147600,0.324000,0.224000,-10.143000,0.001712,0.001669,-0.002010
1764074544813397979,2025-11-25 18:12:24.810,-1.349000,1.738000,38.523000,0.275000,-0.171900,0.152900,0.320000,0.246000,-10.116000,0.001191,0.001023,-0.002226
1764074544840101238,2025-11-25 18:12:24.838,-1.348000,1.742000,38.517000,0.276800,-0.171000,0.147600,0.308000,0.246000,-10.117000,0.000042,0.002589,-0.004393
1764074544863199349,2025-11-25 18:12:24.860,-1.347000,1.744000,38.509000,0.276900,-0.170000,0.151900,0.344000,0.235000,-10.126000,0.000397,0.003147,-0.002608
1764074544888194979,2025-11-25 18:12:24.885,-1.346000,1.748000,38.506000,0.277800,-0.168100,0.146600,0.299000,0.245000,-10.108000,0.000050,0.001608,-0.003298
1764074544914669664,2025-11-25 18:12:24.912,-1.346000,1.752000,38.502000,0.275000,-0.172900,0.152900,0.321000,0.238000,-10.110000,-0.000049,0.002991,-0.003939
1764074544936718386,2025-11-25 18:12:24.934,-1.347000,1.754000,38.499000,0.276800,-0.171900,0.154100,0.307000,0.213000,-10.131000,0.000136,0.002040,-0.003155
1764074544963331164,2025-11-25 18:12:24.960,-1.346000,1.757000,38.496000,0.276900,-0.168100,0.148700,0.292000,0.244000,-10.140000,-0.000546,0.002041,-0.003525
1764074544987843608,2025-11-25 18:12:24.985,-1.348000,1.760000,38.492000,0.275800,-0.175800,0.154000,0.333000,0.235000,-10.137000,0.000181,0.002540,-0.003053
1764074545012586294,2025-11-25 18:12:25.010,-1.349000,1.763000,38.488000,0.275900,-0.171000,0.148700,0.318000,0.215000,-10.138000,-0.001447,0.001140,-0.002806
1764074545082350053,2025-11-25 18:12:25.080,-1.351000,1.767000,38.479000,0.277900,-0.166200,0.150900,0.311000,0.222000,-10.095000,-0.000287,0.000754,-0.003377
1764074545091627219,2025-11-25 18:12:25.089,-1.353000,1.769000,38.472000,0.277800,-0.166200,0.142300,0.304000,0.255000,-10.119000,-0.001563,0.002015,-0.003370
1764074545111521849,2025-11-25 18:12:25.108,-1.355000,1.771000,38.469000,0.277700,-0.171000,0.144500,0.326000,0.235000,-10.106000,-0.000425,0.001412,-0.003476
1764074545138467386,2025-11-25 18:12:25.135,-1.357000,1.773000,38.466000,0.273200,-0.169000,0.147400,0.299000,0.242000,-10.140000,-0.001010,-0.000208,-0.003089
1764074545163492553,2025-11-25 18:12:25.161,-1.359000,1.772000,38.463000,0.275100,-0.169000,0.150700,0.318000,0.246000,-10.066000,-0.001096,-0.000431,-0.002913
1764074545187511701,2025-11-25 18:12:25.184,-1.362000,1.772000,38.458000,0.275000,-0.173900,0.150800,0.329000,0.218000,-10.136000,-0.001291,0.000334,-0.003672
1764074545213581979,2025-11-25 18:12:25.210,-1.365000,1.772000,38.452000,0.275800,-0.174800,0.151900,0.323000,0.257000,-10.109000,-0.000630,0.000081,-0.001918
1764074545240035275,2025-11-25 18:12:25.237,-1.368000,1.771000,38.449000,0.277800,-0.166200,0.147700,0.346000,0.253000,-10.113000,-0.001907,-0.000695,-0.003861
1764074545261372701,2025-11-25 18:12:25.259,-1.370000,1.770000,38.443000,0.276800,-0.171000,0.154000,0.273000,0.234000,-10.104000,-0.002583,-0.001067,-0.002542
1764074545286072405,2025-11-25 18:12:25.283,-1.371000,1.770000,38.437000,0.277900,-0.166200,0.153000,0.309000,0.246000,-10.124000,-0.000210,-0.000798,-0.003301
1764074545314567738,2025-11-25 18:12:25.311,-1.372000,1.768000,38.433000,0.275900,-0.171000,0.152900,0.334000,0.226000,-10.130000,-0.000902,-0.000312,-0.003776
1764074545339024590,2025-11-25 18:12:25.336,-1.373000,1.767000,38.429000,0.277800,-0.171000,0.154100,0.303000,0.244000,-10.150000,-0.000475,-0.001463,-0.002211
1764074545363848812,2025-11-25 18:12:25.361,-1.373000,1.765000,38.426000,0.276900,-0.169100,0.150800,0.345000,0.261000,-10.135000,-0.001123,-0.002110,-0.002321
1764074545388670256,2025-11-25 18:12:25.385,-1.374000,1.764000,38.421000,0.275900,-0.171000,0.154000,0.305000,0.267000,-10.113000,-0.000148,-0.001355,-0.003305
1764074545416085682,2025-11-25 18:12:25.412,-1.375000,1.762000,38.417000,0.277700,-0.175800,0.154100,0.298000,0.257000,-10.121000,0.000114,-0.001685,-0.002532
1764074545438489904,2025-11-25 18:12:25.436,-1.376000,1.760000,38.415000,0.278500,-0.178700,0.154200,0.311000,0.222000,-10.114000,0.000493,-0.000401,-0.002217
1764074545462080182,2025-11-25 18:12:25.459,-1.374000,1.758000,38.410000,0.276000,-0.166200,0.149700,0.306000,0.253000,-10.169000,0.000463,-0.001781,-0.003722
1764074545488468664,2025-11-25 18:12:25.484,-1.373000,1.756000,38.406000,0.276800,-0.172900,0.154100,0.310000,0.237000,-10.117000,0.001504,-0.001833,-0.001898
1764074545511928441,2025-11-25 18:12:25.509,-1.371000,1.752000,38.398000,0.276900,-0.170000,0.150800,0.293000,0.245000,-10.139000,0.001549,-0.001133,-0.003670
1764074545540044164,2025-11-25 18:12:25.537,-1.368000,1.750000,38.396000,0.277800,-0.170000,0.153000,0.322000,0.211000,-10.113000,0.001869,-0.001261,-0.001621
1764074545562265441,2025-11-25 18:12:25.559,-1.367000,1.748000,38.391000,0.276000,-0.169000,0.152900,0.307000,0.250000,-10.151000,0.000741,-0.002200,-0.002350
1764074545587382182,2025-11-25 18:12:25.584,-1.365000,1.747000,38.386000,0.277700,-0.172900,0.149800,0.286000,0.254000,-10.104000,0.000800,-0.001123,-0.002369
1764074545613549034,2025-11-25 18:12:25.610,-1.363000,1.745000,38.384000,0.275000,-0.170000,0.152900,0.318000,0.221000,-10.124000,0.000855,0.000117,-0.001482
1764074545639353904,2025-11-25 18:12:25.637,-1.362000,1.743000,38.382000,0.276800,-0.172900,0.149800,0.272000,0.242000,-10.141000,0.001527,-0.000647,-0.002057
1764074545663761182,2025-11-25 18:12:25.661,-1.359000,1.742000,38.379000,0.277700,-0.172900,0.153000,0.316000,0.218000,-10.129000,0.001300,-0.000746,-0.003559
1764074545688407275,2025-11-25 18:12:25.685,-1.357000,1.741000,38.377000,0.279600,-0.172000,0.152100,0.323000,0.236000,-10.122000,0.001182,-0.000566,-0.002213
1764074545712632404,2025-11-25 18:12:25.709,-1.356000,1.742000,38.375000,0.275900,-0.171000,0.150800,0.281000,0.259000,-10.094000,0.000695,-0.000474,-0.003441
1764074545740386552,2025-11-25 18:12:25.737,-1.355000,1.742000,38.374000,0.275900,-0.172900,0.152900,0.308000,0.224000,-10.114000,0.000753,0.000725,-0.001957
1764074545762366089,2025-11-25 18:12:25.759,-1.355000,1.742000,38.371000,0.277900,-0.165200,0.148700,0.280000,0.243000,-10.075000,0.000945,0.001358,-0.002128
1764074545787337775,2025-11-25 18:12:25.784,-1.354000,1.743000,38.362000,0.277800,-0.170000,0.153000,0.283000,0.248000,-10.151000,0.000250,0.001608,-0.003583
1764074545813267960,2025-11-25 18:12:25.810,-1.354000,1.744000,38.359000,0.278700,-0.171000,0.153100,0.356000,0.224000,-10.101000,0.000048,0.001167,-0.003787
1764074545839956126,2025-11-25 18:12:25.837,-1.354000,1.746000,38.353000,0.277800,-0.167200,0.151900,0.290000,0.245000,-10.096000,-0.000652,0.002350,-0.002856
1764074545861860997,2025-11-25 18:12:25.859,-1.355000,1.750000,38.344000,0.277700,-0.172900,0.148800,0.316000,0.244000,-10.120000,-0.000269,0.002406,-0.003751
1764074545888671034,2025-11-25 18:12:25.885,-1.356000,1.752000,38.340000,0.277800,-0.170100,0.147700,0.317000,0.233000,-10.124000,0.000004,0.001670,-0.002148
1764074545914510793,2025-11-25 18:12:25.911,-1.356000,1.756000,38.335000,0.276900,-0.166200,0.148700,0.317000,0.228000,-10.110000,0.000719,0.003526,-0.003228
1764074545938950404,2025-11-25 18:12:25.936,-1.356000,1.759000,38.331000,0.275900,-0.171900,0.151900,0.341000,0.226000,-10.130000,-0.000479,0.002951,-0.003503
1764074545962733737,2025-11-25 18:12:25.960,-1.358000,1.762000,38.326000,0.277700,-0.172000,0.150900,0.294000,0.232000,-10.109000,-0.001478,0.001869,-0.001985
1764074545988468256,2025-11-25 18:12:25.985,-1.359000,1.765000,38.323000,0.276000,-0.169000,0.151900,0.350000,0.245000,-10.135000,-0.000292,0.002986,-0.004094
1764074546016310515,2025-11-25 18:12:26.013,-1.360000,1.766000,38.319000,0.275100,-0.169000,0.152900,0.332000,0.233000,-10.135000,-0.001057,0.001707,-0.001788
1764074546080856311,2025-11-25 18:12:26.078,-1.362000,1.770000,38.307000,0.276800,-0.172000,0.149800,0.316000,0.225000,-10.095000,0.000230,0.000251,-0.004308
1764074546090492571,2025-11-25 18:12:26.088,-1.362000,1.770000,38.305000,0.274200,-0.169000,0.155000,0.322000,0.228000,-10.113000,-0.000886,-0.000642,-0.002437
1764074546115404349,2025-11-25 18:12:26.112,-1.364000,1.771000,38.301000,0.275100,-0.168100,0.151800,0.348000,0.264000,-10.126000,-0.001096,-0.000270,-0.002486
1764074546138078182,2025-11-25 18:12:26.135,-1.364000,1.770000,38.299000,0.277700,-0.172900,0.148800,0.327000,0.245000,-10.097000,0.000485,-0.001607,-0.002469
1764074546161693589,2025-11-25 18:12:26.159,-1.365000,1.770000,38.297000,0.278700,-0.170100,0.150900,0.328000,0.250000,-10.118000,0.000689,-0.000649,-0.001417
1764074546187826423,2025-11-25 18:12:26.185,-1.366000,1.769000,38.294000,0.277700,-0.174900,0.153100,0.314000,0.256000,-10.123000,0.000123,0.000269,-0.002833
1764074546213409441,2025-11-25 18:12:26.210,-1.366000,1.767000,38.291000,0.277800,-0.168100,0.154100,0.302000,0.250000,-10.129000,-0.000108,-0.001384,-0.002411
1764074546237756960,2025-11-25 18:12:26.235,-1.366000,1.765000,38.288000,0.277800,-0.171000,0.149800,0.314000,0.253000,-10.138000,-0.000446,-0.002370,-0.002004
1764074546263757663,2025-11-25 18:12:26.261,-1.366000,1.761000,38.281000,0.277000,-0.162300,0.148700,0.323000,0.242000,-10.123000,0.000064,-0.002021,-0.003280
1764074546287251052,2025-11-25 18:12:26.284,-1.365000,1.759000,38.276000,0.277700,-0.171000,0.148800,0.296000,0.215000,-10.145000,0.000236,-0.002346,-0.001076
1764074546310424052,2025-11-25 18:12:26.308,-1.363000,1.755000,38.274000,0.277800,-0.171000,0.152000,0.309000,0.221000,-10.143000,0.001183,-0.003357,-0.001951
1764074546337406478,2025-11-25 18:12:26.335,-1.362000,1.752000,38.272000,0.278600,-0.173000,0.148800,0.305000,0.229000,-10.156000,-0.000043,-0.001428,-0.004449
1764074546362804682,2025-11-25 18:12:26.360,-1.360000,1.749000,38.267000,0.278800,-0.166200,0.150900,0.312000,0.239000,-10.094000,0.001341,-0.001196,-0.001650
1764074546388262978,2025-11-25 18:12:26.385,-1.359000,1.746000,38.263000,0.277800,-0.170100,0.149800,0.321000,0.243000,-10.148000,0.000497,-0.002239,-0.001723
1764074546412861126,2025-11-25 18:12:26.409,-1.357000,1.744000,38.261000,0.278700,-0.170100,0.150900,0.301000,0.240000,-10.085000,0.000603,-0.000873,-0.002974
1764074546437572774,2025-11-25 18:12:26.434,-1.356000,1.742000,38.258000,0.280600,-0.168200,0.153200,0.326000,0.229000,-10.152000,0.000696,-0.000273,-0.002383
1764074546463710885,2025-11-25 18:12:26.461,-1.355000,1.740000,38.255000,0.277900,-0.165200,0.147700,0.307000,0.254000,-10.098000,0.000490,-0.000891,-0.002409
1764074546488380219,2025-11-25 18:12:26.485,-1.354000,1.739000,38.248000,0.276800,-0.171000,0.151900,0.308000,0.233000,-10.126000,0.000757,-0.000629,-0.002640
1764074546513885608,2025-11-25 18:12:26.510,-1.353000,1.737000,38.242000,0.276800,-0.172000,0.146600,0.312000,0.207000,-10.120000,0.001678,-0.000027,-0.002605
1764074546541042367,2025-11-25 18:12:26.538,-1.351000,1.736000,38.240000,0.276800,-0.172900,0.147700,0.286000,0.242000,-10.092000,0.000581,-0.000463,-0.004272
1764074546562775256,2025-11-25 18:12:26.560,-1.350000,1.737000,38.235000,0.281400,-0.170100,0.154300,0.334000,0.220000,-10.102000,-0.000492,0.000667,-0.002338
1764074546585319107,2025-11-25 18:12:26.582,-1.351000,1.738000,38.232000,0.277700,-0.172000,0.154100,0.306000,0.231000,-10.131000,-0.000294,0.000879,-0.001989
1764074546612595515,2025-11-25 18:12:26.609,-1.351000,1.740000,38.229000,0.277800,-0.171000,0.152000,0.306000,0.245000,-10.123000,-0.000993,0.000797,-0.003633
1764074546639730904,2025-11-25 18:12:26.636,-1.353000,1.742000,38.227000,0.278700,-0.172000,0.152000,0.348000,0.216000,-10.119000,-0.000806,0.001173,-0.002585
1764074546660250478,2025-11-25 18:12:26.658,-1.354000,1.745000,38.223000,0.277900,-0.165200,0.149800,0.276000,0.248000,-10.106000,-0.000520,0.001840,-0.003413
1764074546686331256,2025-11-25 18:12:26.683,-1.356000,1.747000,38.219000,0.276900,-0.170000,0.154000,0.309000,0.227000,-10.077000,-0.001548,0.001373,-0.001545
1764074546712615311,2025-11-25 18:12:26.709,-1.358000,1.749000,38.214000,0.277700,-0.173000,0.146700,0.323000,0.223000,-10.126000,-0.002023,0.001780,-0.002194
1764074546740118219,2025-11-25 18:12:26.738,-1.360000,1.751000,38.211000,0.277800,-0.170100,0.149800,0.283000,0.248000,-10.108000,-0.002275,0.001294,-0.004381
1764074546759589015,2025-11-25 18:12:26.757,-1.362000,1.753000,38.208000,0.278800,-0.162400,0.146600,0.329000,0.216000,-10.096000,-0.001598,0.000819,-0.002363
1764074546788023959,2025-11-25 18:12:26.785,-1.364000,1.756000,38.201000,0.275200,-0.164200,0.148600,0.328000,0.267000,-10.147000,-0.001390,0.000769,-0.002564
1764074546812920922,2025-11-25 18:12:26.809,-1.366000,1.758000,38.197000,0.277800,-0.171000,0.154100,0.317000,0.256000,-10.166000,-0.002636,0.001279,-0.002676
1764074546839825015,2025-11-25 18:12:26.837,-1.368000,1.760000,38.195000,0.276800,-0.171000,0.154000,0.334000,0.252000,-10.113000,-0.001392,0.000476,-0.001827
1764074546860937330,2025-11-25 18:12:26.858,-1.370000,1.761000,38.192000,0.277700,-0.172000,0.152000,0.299000,0.252000,-10.144000,-0.001521,0.001398,-0.002577
1764074546888334385,2025-11-25 18:12:26.885,-1.372000,1.763000,38.189000,0.279600,-0.171000,0.154200,0.329000,0.238000,-10.119000,-0.000730,0.000893,-0.002640
1764074546916757237,2025-11-25 18:12:26.914,-1.373000,1.764000,38.182000,0.277800,-0.171000,0.152000,0.327000,0.233000,-10.098000,0.000370,0.000199,-0.001793
1764074546935889774,2025-11-25 18:12:26.933,-1.373000,1.765000,38.178000,0.276900,-0.168100,0.155100,0.326000,0.293000,-10.119000,-0.000019,0.000458,-0.002270
1764074546962832663,2025-11-25 18:12:26.960,-1.374000,1.765000,38.177000,0.279600,-0.170100,0.151000,0.311000,0.232000,-10.157000,-0.000382,-0.000674,-0.002738
1764074546986994496,2025-11-25 18:12:26.984,-1.373000,1.766000,38.174000,0.276800,-0.172000,0.151900,0.284000,0.240000,-10.089000,0.000074,0.000192,-0.001284
1764074547013075607,2025-11-25 18:12:27.010,-1.373000,1.766000,38.169000,0.278700,-0.171000,0.152000,0.328000,0.215000,-10.084000,0.000691,-0.000400,-0.003412
1764074547079757533,2025-11-25 18:12:27.077,-1.370000,1.768000,38.164000,0.278700,-0.171000,0.149900,0.296000,0.273000,-10.105000,-0.000149,0.000510,-0.001724
1764074547089183811,2025-11-25 18:12:27.087,-1.368000,1.766000,38.163000,0.277900,-0.163300,0.147600,0.323000,0.245000,-10.112000,0.002440,-0.000648,-0.003634
1764074547116623755,2025-11-25 18:12:27.114,-1.365000,1.766000,38.159000,0.279700,-0.163300,0.149900,0.300000,0.226000,-10.132000,0.002760,-0.000346,-0.001046
1764074547137330996,2025-11-25 18:12:27.134,-1.362000,1.766000,38.152000,0.278700,-0.169100,0.148800,0.305000,0.251000,-10.113000,0.001083,0.000683,-0.002084
1764074547162522459,2025-11-25 18:12:27.160,-1.360000,1.764000,38.147000,0.276000,-0.168100,0.150800,0.295000,0.226000,-10.107000,0.002095,-0.000562,-0.002335
1764074547185534681,2025-11-25 18:12:27.182,-1.357000,1.764000,38.140000,0.277000,-0.163300,0.150800,0.286000,0.219000,-10.105000,0.002959,-0.000538,-0.002099
1764074547215571237,2025-11-25 18:12:27.211,-1.353000,1.761000,38.136000,0.276000,-0.167100,0.152900,0.314000,0.230000,-10.096000,0.002375,-0.000567,-0.003475
1764074547239118292,2025-11-25 18:12:27.236,-1.350000,1.760000,38.133000,0.278800,-0.165200,0.153000,0.298000,0.238000,-10.115000,0.001195,0.000193,-0.002628
1764074547264996607,2025-11-25 18:12:27.262,-1.348000,1.759000,38.129000,0.276800,-0.172900,0.153000,0.333000,0.218000,-10.115000,0.002301,-0.000931,-0.002700
1764074547284961718,2025-11-25 18:12:27.282,-1.346000,1.758000,38.125000,0.277800,-0.169100,0.149800,0.299000,0.223000,-10.120000,0.001454,0.000179,-0.003622
1764074547312391681,2025-11-25 18:12:27.309,-1.344000,1.758000,38.123000,0.276800,-0.171000,0.151900,0.308000,0.206000,-10.097000,0.001400,0.000232,-0.001971
1764074547339293107,2025-11-25 18:12:27.336,-1.342000,1.756000,38.121000,0.278700,-0.169100,0.152000,0.313000,0.238000,-10.127000,0.001011,-0.000411,-0.001152
1764074547363052848,2025-11-25 18:12:27.360,-1.341000,1.755000,38.117000,0.278800,-0.163300,0.148700,0.289000,0.239000,-10.124000,-0.000008,-0.000424,-0.002712
1764074547388225607,2025-11-25 18:12:27.385,-1.341000,1.755000,38.113000,0.278700,-0.169100,0.152000,0.304000,0.217000,-10.135000,-0.000396,-0.000166,-0.001561
1764074547414973737,2025-11-25 18:12:27.411,-1.341000,1.754000,38.112000,0.278800,-0.166200,0.149800,0.289000,0.258000,-10.097000,-0.001389,-0.000872,-0.001923
1764074547439325607,2025-11-25 18:12:27.436,-1.342000,1.755000,38.108000,0.277800,-0.169100,0.146600,0.299000,0.215000,-10.105000,-0.001085,0.001019,-0.002768
1764074547464558311,2025-11-25 18:12:27.462,-1.344000,1.756000,38.103000,0.280600,-0.168200,0.151000,0.334000,0.221000,-10.129000,-0.001510,0.001279,-0.001063
1764074547487170940,2025-11-25 18:12:27.483,-1.347000,1.757000,38.099000,0.275900,-0.171900,0.150800,0.301000,0.242000,-10.118000,-0.001441,-0.000059,-0.003209
1764074547514761070,2025-11-25 18:12:27.511,-1.348000,1.758000,38.093000,0.277900,-0.164300,0.149800,0.300000,0.197000,-10.141000,-0.002048,0.000675,-0.001538
1764074547539390385,2025-11-25 18:12:27.536,-1.351000,1.759000,38.091000,0.277800,-0.171000,0.153000,0.301000,0.254000,-10.118000,-0.002091,0.000142,-0.000049
1764074547565380311,2025-11-25 18:12:27.562,-1.355000,1.761000,38.091000,0.276800,-0.171000,0.151900,0.291000,0.257000,-10.147000,-0.002771,0.000777,-0.002297
1764074547588078607,2025-11-25 18:12:27.583,-1.360000,1.762000,38.089000,0.276800,-0.171000,0.150800,0.329000,0.226000,-10.163000,-0.002864,0.001162,0.000048
1764074547615708922,2025-11-25 18:12:27.612,-1.363000,1.764000,38.089000,0.276900,-0.170000,0.155100,0.304000,0.248000,-10.138000,-0.001998,0.000444,-0.000889
1764074547638239459,2025-11-25 18:12:27.635,-1.367000,1.766000,38.087000,0.279600,-0.170100,0.156300,0.329000,0.236000,-10.127000,-0.001428,0.001505,-0.002441
1764074547664200422,2025-11-25 18:12:27.661,-1.370000,1.766000,38.086000,0.277900,-0.165200,0.150900,0.335000,0.231000,-10.153000,-0.001696,0.000459,-0.001310
1764074547691087514,2025-11-25 18:12:27.687,-1.373000,1.767000,38.081000,0.277800,-0.168100,0.147700,0.277000,0.245000,-10.149000,-0.001234,0.000434,-0.002588
1764074547714511403,2025-11-25 18:12:27.711,-1.376000,1.767000,38.079000,0.276800,-0.171000,0.153000,0.354000,0.239000,-10.106000,-0.001770,0.000357,-0.001746
1764074547738285255,2025-11-25 18:12:27.735,-1.377000,1.769000,38.077000,0.278700,-0.172000,0.156300,0.289000,0.245000,-10.144000,-0.000348,-0.000130,-0.001065
1764074547763687199,2025-11-25 18:12:27.760,-1.377000,1.769000,38.073000,0.278500,-0.177800,0.148900,0.306000,0.267000,-10.097000,0.000954,0.000464,-0.003912
1764074547790578885,2025-11-25 18:12:27.785,-1.378000,1.767000,38.072000,0.278700,-0.169100,0.149900,0.334000,0.221000,-10.129000,0.000177,-0.002193,-0.001263
1764074547814833736,2025-11-25 18:12:27.812,-1.377000,1.768000,38.070000,0.278600,-0.172900,0.153100,0.310000,0.270000,-10.130000,0.001397,0.000010,-0.001056
1764074547840865996,2025-11-25 18:12:27.837,-1.376000,1.767000,38.066000,0.280500,-0.172000,0.157400,0.326000,0.262000,-10.141000,-0.000230,-0.001634,-0.003724
1764074547863745440,2025-11-25 18:12:27.860,-1.374000,1.766000,38.062000,0.279700,-0.163300,0.153100,0.337000,0.223000,-10.139000,0.001747,-0.000901,-0.002435
1764074547889088644,2025-11-25 18:12:27.886,-1.370000,1.766000,38.056000,0.276000,-0.169000,0.150800,0.299000,0.259000,-10.126000,0.002424,-0.000562,-0.002859
1764074547913513755,2025-11-25 18:12:27.910,-1.366000,1.764000,38.053000,0.278700,-0.167200,0.149800,0.302000,0.237000,-10.120000,0.003129,-0.000780,-0.002717
1764074547940520699,2025-11-25 18:12:27.938,-1.360000,1.762000,38.050000,0.276800,-0.172900,0.150900,0.298000,0.256000,-10.131000,0.003436,-0.000387,-0.000597
1764074547962581681,2025-11-25 18:12:27.959,-1.356000,1.761000,38.046000,0.280500,-0.170100,0.153200,0.312000,0.256000,-10.122000,0.003424,-0.000814,-0.001921
1764074547987829236,2025-11-25 18:12:27.984,-1.352000,1.759000,38.043000,0.277900,-0.165200,0.150900,0.334000,0.228000,-10.140000,0.003874,-0.001434,-0.002814
1764074548012722273,2025-11-25 18:12:28.010,-1.345000,1.758000,38.041000,0.277800,-0.169100,0.153000,0.287000,0.229000,-10.144000,0.003255,-0.000519,-0.001533
1764074548078980847,2025-11-25 18:12:28.077,-1.336000,1.754000,38.038000,0.278700,-0.168100,0.152000,0.312000,0.232000,-10.113000,0.002438,0.000944,-0.000859
1764074548089279199,2025-11-25 18:12:28.087,-1.333000,1.755000,38.034000,0.277700,-0.172000,0.155200,0.325000,0.238000,-10.130000,0.002626,-0.000340,-0.000948
1764074548114421681,2025-11-25 18:12:28.112,-1.330000,1.754000,38.032000,0.279600,-0.168100,0.154200,0.298000,0.233000,-10.067000,0.000966,0.000606,-0.001881
1764074548140138329,2025-11-25 18:12:28.137,-1.329000,1.755000,38.028000,0.278700,-0.168100,0.149900,0.276000,0.208000,-10.126000,0.000164,0.000519,-0.000708
1764074548163508236,2025-11-25 18:12:28.161,-1.329000,1.755000,38.026000,0.277800,-0.171000,0.150900,0.306000,0.243000,-10.083000,-0.000188,-0.000326,-0.000601
1764074548189513773,2025-11-25 18:12:28.185,-1.329000,1.756000,38.027000,0.278700,-0.168100,0.150900,0.311000,0.216000,-10.084000,-0.000836,0.000554,-0.001839
1764074548215571403,2025-11-25 18:12:28.213,-1.331000,1.757000,38.025000,0.278700,-0.169100,0.150900,0.329000,0.227000,-10.143000,-0.000537,0.000183,-0.000991
1764074548238487440,2025-11-25 18:12:28.236,-1.333000,1.757000,38.024000,0.279600,-0.169100,0.148800,0.317000,0.241000,-10.098000,-0.001952,0.000685,-0.001587
1764074548263382977,2025-11-25 18:12:28.260,-1.336000,1.758000,38.022000,0.278700,-0.168100,0.148800,0.311000,0.239000,-10.099000,-0.003035,0.000840,-0.001414
1764074548287804495,2025-11-25 18:12:28.285,-1.340000,1.759000,38.021000,0.277900,-0.164300,0.150800,0.337000,0.239000,-10.112000,-0.003164,-0.000509,-0.001354
1764074548313614162,2025-11-25 18:12:28.310,-1.345000,1.758000,38.020000,0.276800,-0.170000,0.145500,0.293000,0.265000,-10.113000,-0.003649,-0.000049,-0.002621
1764074548340111662,2025-11-25 18:12:28.338,-1.348000,1.759000,38.019000,0.279700,-0.165300,0.149900,0.297000,0.220000,-10.127000,-0.003034,-0.001222,-0.000556
1764074548363773958,2025-11-25 18:12:28.361,-1.353000,1.758000,38.017000,0.279600,-0.168200,0.152000,0.342000,0.251000,-10.098000,-0.002421,-0.000370,-0.001386
1764074548388079588,2025-11-25 18:12:28.384,-1.358000,1.759000,38.014000,0.278700,-0.167200,0.150900,0.301000,0.265000,-10.119000,-0.003125,0.000543,-0.001781
1764074548415468032,2025-11-25 18:12:28.411,-1.362000,1.759000,38.013000,0.277700,-0.172000,0.154100,0.318000,0.210000,-10.129000,-0.002341,-0.000380,-0.000530
1764074548438867977,2025-11-25 18:12:28.436,-1.365000,1.758000,38.013000,0.275100,-0.166100,0.149700,0.311000,0.260000,-10.136000,-0.001434,0.000448,-0.000598
1764074548462799625,2025-11-25 18:12:28.460,-1.367000,1.759000,38.013000,0.279600,-0.171000,0.151000,0.303000,0.253000,-10.120000,-0.001396,0.000238,-0.000355
1764074548487685458,2025-11-25 18:12:28.484,-1.368000,1.758000,38.013000,0.278800,-0.166200,0.147700,0.337000,0.250000,-10.124000,-0.000613,-0.000737,0.000344
1764074548515189847,2025-11-25 18:12:28.512,-1.369000,1.759000,38.013000,0.279600,-0.168200,0.152000,0.299000,0.244000,-10.091000,-0.000110,0.000220,-0.001400
1764074548539277736,2025-11-25 18:12:28.537,-1.370000,1.760000,38.011000,0.277900,-0.165200,0.151900,0.327000,0.218000,-10.096000,0.000087,0.000119,-0.000316
1764074548563140514,2025-11-25 18:12:28.560,-1.369000,1.760000,38.011000,0.278000,-0.161400,0.148700,0.325000,0.217000,-10.120000,0.000763,0.000150,-0.000817
1764074548587763440,2025-11-25 18:12:28.584,-1.368000,1.761000,38.007000,0.278600,-0.172000,0.144600,0.297000,0.255000,-10.115000,-0.000067,0.000650,-0.002806
1764074548614297495,2025-11-25 18:12:28.611,-1.366000,1.761000,38.006000,0.277900,-0.164300,0.148700,0.332000,0.230000,-10.113000,0.001340,0.000840,-0.000395
