Timestamp,Time,Roll,Pitch,Yaw,Velocity_Increment_X,Velocity_Increment_Y,Velocity_Increment_Z,Acc_X,Acc_Y,Acc_Z,Gyro_X,Gyro_Y,Gyro_Z,Mag_X,Mag_Y,Mag_Z,Pressure
1764074524593469787,2025-11-25 18:12:04.584,0.599204,0.753812,2.424535,0.013107,0.010829,0.978720,0.155863,0.000107,9.805857,0.002325,-0.000599,-0.006001,0.829849,0.453274,-1.209766,100332.0000
1764074524692558009,2025-11-25 18:12:04.683,0.597230,0.765313,2.446516,0.013606,0.011144,0.979096,0.136582,0.146207,9.775895,0.003027,-0.001926,0.001997,0.833216,0.452344,-1.209320,100334.0000
1764074524790137824,2025-11-25 18:12:04.783,0.584904,0.779870,2.471185,0.014147,0.010954,0.979258,0.126379,0.166167,9.808154,-0.002216,-0.000383,-0.006441,0.830792,0.454640,-1.213172,100341.0000
1764074524889526694,2025-11-25 18:12:04.883,0.570848,0.784357,2.499060,0.015052,0.009618,0.979164,0.181878,-0.020177,9.805804,-0.002843,0.002170,-0.003462,0.830799,0.452303,-1.210728,100336.0000
1764074524986765269,2025-11-25 18:12:04.979,0.565637,0.781043,2.528769,0.014984,0.008796,0.978710,0.126352,0.154673,9.768449,0.001868,0.001037,0.000384,0.828871,0.454642,-1.212662,100336.0000
1764074525088972602,2025-11-25 18:12:05.083,0.573183,0.766571,2.553184,0.014724,0.008251,0.978296,0.123622,0.091678,9.787871,0.003796,-0.000036,-0.004153,0.831275,0.452762,-1.211706,100336.0000
1764074525187803898,2025-11-25 18:12:05.176,0.594272,0.746844,2.578532,0.014199,0.009126,0.978305,0.145152,0.031604,9.798428,0.007816,0.002558,0.002996,0.830825,0.456612,-1.210313,100332.0000
1764074525290574435,2025-11-25 18:12:05.283,0.610368,0.731973,2.600056,0.013189,0.010641,0.978539,0.102973,0.223089,9.773110,-0.001465,-0.000025,-0.003109,0.829849,0.454687,-1.210751,100332.0000
1764074525386033657,2025-11-25 18:12:05.383,0.613026,0.729971,2.624447,0.012636,0.011518,0.978302,0.138751,0.085892,9.816561,-0.001932,-0.000331,-0.001707,0.833712,0.456625,-1.210356,100336.0000
1764074525487646268,2025-11-25 18:12:05.483,0.606859,0.740337,2.650592,0.012701,0.011576,0.978457,0.126218,0.082719,9.768140,-0.004628,-0.001200,0.002887,0.828382,0.456032,-1.214602,100332.0000
1764074525586490916,2025-11-25 18:12:05.583,0.590712,0.758468,2.680845,0.013121,0.010410,0.978691,0.123723,0.163682,9.784142,-0.000058,-0.004689,-0.005184,0.831285,0.455618,-1.212231,100332.0000
1764074525694522361,2025-11-25 18:12:05.684,0.579084,0.774673,2.709851,0.014476,0.008782,0.979070,0.201186,-0.029713,9.803790,-0.001527,-0.004210,-0.003053,0.830344,0.456610,-1.210306,100336.0000
1764074525790352120,2025-11-25 18:12:05.783,0.580903,0.783930,2.736839,0.015214,0.008928,0.978894,0.126481,0.170534,9.763517,0.005024,0.000253,-0.002051,0.830344,0.456610,-1.210306,100330.0000
1764074525888229046,2025-11-25 18:12:05.883,0.593587,0.778845,2.762224,0.015591,0.009224,0.978939,0.154328,0.093836,9.804629,-0.002194,0.002812,-0.003080,0.829366,0.457510,-1.212713,100330.0000
1764074525988111472,2025-11-25 18:12:05.983,0.607441,0.761783,2.786524,0.015291,0.009611,0.978996,0.159477,0.041305,9.776499,0.008802,0.001635,0.002055,0.830799,0.453715,-1.211713,100336.0000
1764074526088469175,2025-11-25 18:12:06.083,0.619022,0.740695,2.812141,0.014012,0.010610,0.978730,0.109812,0.195930,9.792471,0.003197,0.006399,-0.003444,0.830817,0.456592,-1.211276,100330.0000
1764074526185858416,2025-11-25 18:12:06.183,0.622863,0.725305,2.840106,0.012785,0.010762,0.978406,0.156235,0.017940,9.800565,-0.000215,0.000432,-0.003294,0.829847,0.456567,-1.212224,100341.0000
1764074526285953138,2025-11-25 18:12:06.283,0.619200,0.721805,2.870375,0.012246,0.010784,0.978427,0.086525,0.157972,9.761848,0.000083,-0.002538,-0.000440,0.828416,0.457536,-1.211254,100332.0000
1764074526387734657,2025-11-25 18:12:06.383,0.614544,0.735267,2.902380,0.012027,0.010649,0.978524,0.132028,0.108815,9.797501,-0.002659,-0.003753,-0.004524,0.827941,0.455664,-1.209293,100328.0000
1764074526485908249,2025-11-25 18:12:06.483,0.606217,0.758919,2.927883,0.013170,0.010141,0.978264,0.144397,0.039005,9.779698,0.002089,-0.004180,0.001580,0.826477,0.457019,-1.212663,100335.0000
1764074526596141119,2025-11-25 18:12:06.583,0.596470,0.784221,2.956327,0.014735,0.010021,0.978608,0.150323,0.199177,9.786262,-0.000879,-0.004649,-0.003941,0.826981,0.460853,-1.212247,100326.0000
1764074526690319971,2025-11-25 18:12:06.683,0.593216,0.796657,2.985962,0.015683,0.008925,0.978635,0.194142,-0.010433,9.808102,0.000205,-0.000426,-0.003512,0.829395,0.459472,-1.210336,100326.0000
1764074526791954416,2025-11-25 18:12:06.783,0.597034,0.785549,3.014340,0.015820,0.008899,0.978571,0.120390,0.157046,9.768467,0.005241,0.001097,-0.000250,0.829864,0.458498,-1.211291,100328.0000
1764074526890203934,2025-11-25 18:12:06.883,0.606245,0.755854,3.047283,0.015116,0.009011,0.979246,0.136650,0.097850,9.795963,0.003050,0.005285,-0.007377,0.829391,0.458516,-1.210321,100334.0000
1764074526998455490,2025-11-25 18:12:06.983,0.624945,0.724287,3.079207,0.013386,0.009246,0.978946,0.121193,0.049023,9.790443,0.003598,0.005397,-0.001411,0.827955,0.460888,-1.210817,100332.0000
1764074527101331971,2025-11-25 18:12:07.084,0.637006,0.709953,3.109624,0.011496,0.011115,0.978702,0.106717,0.225533,9.780240,-0.000554,-0.002023,-0.005801,0.826978,0.458017,-1.210759,100330.0000
1764074527200709601,2025-11-25 18:12:07.183,0.642751,0.722466,3.138892,0.011337,0.011462,0.978215,0.140245,0.032498,9.804319,-0.000820,-0.004251,-0.004473,0.828903,0.459439,-1.211773,100330.0000
1764074527286546063,2025-11-25 18:12:07.283,0.636460,0.751284,3.169204,0.012642,0.011412,0.978073,0.128284,0.147417,9.761217,-0.000648,-0.006844,0.001222,0.829381,0.458963,-1.211772,100338.0000
1764074527389981323,2025-11-25 18:12:07.383,0.623963,0.780753,3.199061,0.014559,0.010997,0.978587,0.156008,0.156390,9.788622,-0.000469,-0.009336,-0.007633,0.827462,0.458497,-1.210774,100334.0000
1764074527486464397,2025-11-25 18:12:07.483,0.612747,0.795693,3.232337,0.016011,0.009468,0.978932,0.194046,-0.017147,9.796754,0.001707,0.000077,-0.002040,0.827446,0.459869,-1.213684,100333.0000
1764074527595350230,2025-11-25 18:12:07.583,0.602304,0.786421,3.265193,0.015619,0.008752,0.979259,0.150422,0.174400,9.775085,-0.003833,0.005467,-0.001353,0.829896,0.461883,-1.209417,100332.0000
1764074527701572211,2025-11-25 18:12:07.685,0.603320,0.767420,3.296777,0.015035,0.008985,0.979291,0.162730,0.079820,9.807564,0.000901,0.002022,-0.006142,0.827957,0.462778,-1.211810,100328.0000
1764074527787838563,2025-11-25 18:12:07.783,0.608526,0.743483,3.328555,0.013715,0.008698,0.978830,0.119966,0.039467,9.768717,0.003933,0.007694,-0.001462,0.826004,0.459395,-1.213174,100330.0000
1764074527886135322,2025-11-25 18:12:07.883,0.624295,0.729284,3.359340,0.012769,0.009966,0.978260,0.086332,0.193790,9.750952,0.002335,0.005697,-0.004444,0.827469,0.461343,-1.211781,100332.0000
1764074527986076044,2025-11-25 18:12:07.983,0.641532,0.727745,3.392140,0.012795,0.009924,0.978044,0.150900,0.012202,9.793588,0.006345,-0.004747,-0.005611,0.827481,0.462319,-1.210832,100332.0000
1764074528096786489,2025-11-25 18:12:08.092,0.656422,0.734353,3.425269,0.012949,0.010922,0.977946,0.105823,0.140207,9.767866,0.002807,-0.002749,-0.001070,0.827949,0.460400,-1.211291,100336.0000
1764074528190538526,2025-11-25 18:12:08.184,0.658304,0.747166,3.455945,0.013257,0.011439,0.978611,0.126363,0.156970,9.795601,-0.000659,-0.004960,-0.008831,0.825537,0.462259,-1.213211,100332.0000
1764074528286662637,2025-11-25 18:12:08.283,0.644668,0.759631,3.489198,0.014337,0.011026,0.979450,0.169096,-0.008140,9.800786,-0.000962,0.000017,-0.004572,0.825076,0.462308,-1.210797,100328.0000
1764074528392084341,2025-11-25 18:12:08.384,0.633640,0.772909,3.520996,0.014300,0.010742,0.979741,0.112521,0.200893,9.790680,0.003190,-0.005615,-0.001656,0.826028,0.460401,-1.210782,100332.0000
1764074528486533415,2025-11-25 18:12:08.483,0.622533,0.779081,3.555607,0.014720,0.009122,0.979687,0.152326,0.058622,9.822686,0.002028,-0.001479,-0.006862,0.824614,0.464715,-1.209864,100338.0000
1764074528587537303,2025-11-25 18:12:08.583,0.617593,0.775878,3.588747,0.015024,0.008841,0.978782,0.148376,0.048985,9.771282,0.000503,0.004812,0.000346,0.825552,0.461355,-1.210789,100329.0000
1764074528686616766,2025-11-25 18:12:08.683,0.626113,0.769031,3.623334,0.014539,0.009450,0.978055,0.093240,0.173899,9.769481,0.003673,-0.002296,-0.004861,0.830375,0.463765,-1.210897,100332.0000
1764074528786785507,2025-11-25 18:12:08.783,0.633370,0.758124,3.656497,0.013859,0.009411,0.977620,0.166127,-0.012974,9.790697,0.005880,0.000861,-0.002060,0.825547,0.462757,-1.212255,100330.0000
1764074528886871692,2025-11-25 18:12:08.883,0.640719,0.754120,3.690489,0.013072,0.010420,0.978021,0.092518,0.168357,9.754330,-0.001513,0.001916,-0.003005,0.827004,0.462327,-1.210344,100328.0000
1764074528986464062,2025-11-25 18:12:08.983,0.644419,0.748811,3.724555,0.013190,0.010382,0.978938,0.136119,0.095774,9.808267,0.001031,-0.002823,-0.007429,0.824592,0.465599,-1.213248,100326.0000
1764074529087778859,2025-11-25 18:12:09.076,0.648923,0.754360,3.759266,0.013140,0.010396,0.979500,0.125488,0.036010,9.780694,0.002354,-0.002258,-0.001037,0.824588,0.464176,-1.212745,100330.0000
1764074529189142599,2025-11-25 18:12:09.183,0.646168,0.769021,3.793012,0.013364,0.010850,0.979678,0.094505,0.209309,9.790889,-0.003049,-0.004119,-0.005242,0.825094,0.465184,-1.210360,100332.0000
1764074529281372192,2025-11-25 18:12:09.277,0.641039,0.784040,3.826426,0.014171,0.009781,0.979495,0.169689,-0.006167,9.812661,-0.001743,0.000570,-0.003092,0.823169,0.467533,-1.211812,100336.0000
1764074529414868229,2025-11-25 18:12:09.392,0.642391,0.792757,3.859238,0.014635,0.009699,0.978962,0.136735,0.132717,9.776809,-0.000558,-0.000542,-0.001577,0.822670,0.463242,-1.211257,100334.0000
1764074529496450155,2025-11-25 18:12:09.476,0.644855,0.791312,3.893307,0.014841,0.010134,0.978260,0.141245,0.152583,9.799624,0.002161,0.002144,-0.007046,0.825569,0.467056,-1.212321,100332.0000
1764074529589924692,2025-11-25 18:12:09.584,0.646656,0.779582,3.925997,0.014825,0.009364,0.977785,0.162950,0.009405,9.760019,-0.000128,0.000130,-0.000370,0.823168,0.466588,-1.211316,100332.0000
1764074529686477377,2025-11-25 18:12:09.683,0.648612,0.766442,3.960020,0.013515,0.010310,0.977832,0.102337,0.215183,9.745500,0.004207,0.000410,0.003836,0.823184,0.466629,-1.209390,100325.0000
1764074529786417951,2025-11-25 18:12:09.783,0.648301,0.758243,3.995045,0.012896,0.009704,0.978331,0.139467,0.048062,9.819502,0.003509,-0.001709,-0.007755,0.822195,0.467498,-1.213241,100336.0000
1764074529887499784,2025-11-25 18:12:09.883,0.651534,0.761631,4.026666,0.012816,0.009613,0.978958,0.125923,0.070693,9.769444,-0.001397,-0.002022,-0.002098,0.823649,0.465645,-1.210827,100344.0000
1764074529986545543,2025-11-25 18:12:09.983,0.655941,0.771951,4.060214,0.013234,0.010208,0.979356,0.096795,0.170858,9.777557,0.002647,-0.000535,-0.006640,0.824139,0.467558,-1.210863,100324.0000
1764074530085416673,2025-11-25 18:12:10.082,0.654908,0.784388,4.092404,0.014108,0.009663,0.979438,0.174857,0.001095,9.807226,-0.001511,0.001473,-0.003852,0.824121,0.466094,-1.212285,100336.0000
1764074530195330784,2025-11-25 18:12:10.192,0.657175,0.787562,4.124075,0.014721,0.010310,0.978926,0.138150,0.169496,9.776339,0.003968,-0.001782,-0.000739,0.822691,0.468009,-1.211812,100334.0000
1764074530287090969,2025-11-25 18:12:10.283,0.658156,0.788106,4.158525,0.014889,0.009868,0.978675,0.174682,0.072068,9.815521,-0.001497,0.000720,-0.007954,0.821730,0.467537,-1.211309,100340.0000
1764074530385837043,2025-11-25 18:12:10.383,0.661125,0.783396,4.194644,0.014140,0.009983,0.978267,0.142254,0.086230,9.769442,0.002987,0.003855,-0.001775,0.822691,0.468954,-1.212308,100331.0000
1764074530486301080,2025-11-25 18:12:10.483,0.657446,0.778540,4.230237,0.013456,0.010762,0.978405,0.122400,0.181354,9.798100,-0.000844,-0.001175,-0.007448,0.821249,0.467535,-1.211302,100332.0000
1764074530587152543,2025-11-25 18:12:10.582,0.655855,0.780739,4.266531,0.013488,0.009708,0.978533,0.169789,-0.037511,9.792802,-0.000930,0.001957,-0.000514,0.823663,0.468511,-1.210871,100331.0000
1764074530686214710,2025-11-25 18:12:10.683,0.652735,0.786440,4.298382,0.013596,0.010433,0.978273,0.112892,0.200689,9.769606,0.004903,-0.000584,-0.003811,0.821264,0.469933,-1.210857,100326.0000
1764074530787129191,2025-11-25 18:12:10.783,0.653086,0.787245,4.333285,0.014139,0.009370,0.978626,0.159072,0.036889,9.809853,0.002340,-0.000773,-0.007954,0.822704,0.467572,-1.209879,100335.0000
1764074530886894395,2025-11-25 18:12:10.883,0.658731,0.788315,4.359505,0.013964,0.009544,0.979068,0.115443,0.144722,9.765447,0.004676,0.000013,0.000701,0.823192,0.471365,-1.211389,100332.0000
1764074530986604969,2025-11-25 18:12:10.983,0.666797,0.783776,4.392958,0.014353,0.009847,0.979048,0.135096,0.104395,9.804637,0.002296,-0.001481,-0.007131,0.823213,0.473306,-1.209974,100326.0000
1764074531085460709,2025-11-25 18:12:11.082,0.674331,0.782936,4.427349,0.013888,0.009970,0.979218,0.132359,0.058107,9.777274,0.000539,0.001904,-0.003414,0.819829,0.469947,-1.209873,100330.0000
1764074531186707469,2025-11-25 18:12:11.183,0.680204,0.785144,4.459846,0.013324,0.011183,0.978874,0.140902,0.192365,9.805153,0.001371,-0.002098,-0.005620,0.819835,0.472793,-1.210880,100340.0000
1764074531286450913,2025-11-25 18:12:11.283,0.676710,0.791679,4.495013,0.013718,0.010902,0.978590,0.165135,0.007363,9.793870,-0.002547,-0.000922,-0.004181,0.820288,0.469421,-1.212280,100334.0000
1764074531386098302,2025-11-25 18:12:11.383,0.663176,0.799609,4.532493,0.013722,0.010959,0.978476,0.096164,0.205683,9.773647,-0.001849,-0.002416,-0.001486,0.821263,0.468043,-1.209865,100332.0000
1764074531492613598,2025-11-25 18:12:11.483,0.650843,0.804910,4.564902,0.014358,0.009813,0.978289,0.179298,0.029724,9.793090,-0.003112,0.003023,-0.005603,0.820298,0.473689,-1.213790,100335.0000
1764074531586426191,2025-11-25 18:12:11.583,0.648437,0.801830,4.592712,0.014307,0.009368,0.978624,0.105731,0.155658,9.762566,0.008135,-0.001233,-0.000517,0.820774,0.470378,-1.212301,100334.0000
1764074531686724227,2025-11-25 18:12:11.683,0.650732,0.798246,4.625087,0.014635,0.009006,0.978866,0.157523,0.069726,9.815169,-0.001337,0.001445,-0.006978,0.819838,0.471858,-1.209902,100333.0000
1764074531785890709,2025-11-25 18:12:11.783,0.660832,0.784615,4.654765,0.014053,0.009335,0.978967,0.130797,0.082226,9.759894,0.003195,0.001702,-0.000903,0.818866,0.473714,-1.212324,100334.0000
1764074531886775413,2025-11-25 18:12:11.883,0.671745,0.779611,4.687017,0.013866,0.010341,0.978742,0.144316,0.158417,9.799222,-0.000759,-0.000576,-0.010176,0.819330,0.471784,-1.213265,100332.0000
1764074531986169227,2025-11-25 18:12:11.983,0.681498,0.777403,4.719952,0.013170,0.010365,0.978856,0.124643,0.042992,9.773936,0.003276,0.003940,0.002481,0.821275,0.472789,-1.211382,100336.0000
1764074532085481098,2025-11-25 18:12:12.083,0.687879,0.782767,4.749438,0.013133,0.010862,0.978384,0.114371,0.182984,9.793523,0.002244,-0.005680,-0.005408,0.818878,0.472331,-1.209895,100330.0000
1764074532185686098,2025-11-25 18:12:12.183,0.684874,0.794963,4.779649,0.013413,0.010797,0.978104,0.157858,0.011990,9.773529,-0.004971,-0.000062,-0.003308,0.820314,0.474675,-1.212360,100339.0000
1764074532286591931,2025-11-25 18:12:12.283,0.677527,0.805245,4.809985,0.014131,0.010968,0.978349,0.112368,0.199356,9.783878,0.001003,0.003425,-0.001753,0.819361,0.475637,-1.211879,100335.0000
1764074532386251227,2025-11-25 18:12:12.383,0.663615,0.808834,4.841060,0.014954,0.010177,0.978601,0.168097,0.018094,9.809589,-0.002282,0.002675,-0.006551,0.819356,0.472323,-1.210384,100332.0000
1764074532486097875,2025-11-25 18:12:12.483,0.654190,0.801803,4.874490,0.014933,0.009459,0.978768,0.128275,0.175507,9.772841,0.000731,0.000753,-0.003684,0.817430,0.475140,-1.212325,100335.0000
1764074532586361301,2025-11-25 18:12:12.583,0.652952,0.787760,4.905445,0.014628,0.008906,0.979121,0.162120,0.007885,9.799314,-0.002509,0.004665,-0.008695,0.819848,0.473769,-1.209931,100334.0000
1764074532687583801,2025-11-25 18:12:12.683,0.661668,0.776706,4.935943,0.013843,0.008732,0.979290,0.104539,0.137766,9.775413,0.002488,-0.000903,0.000786,0.820331,0.473303,-1.209450,100330.0000
1764074532786364338,2025-11-25 18:12:12.783,0.675532,0.773641,4.964314,0.012871,0.009933,0.979246,0.155412,0.106227,9.822851,0.001897,-0.000036,-0.007014,0.818392,0.473732,-1.211354,100340.0000
1764074532886395282,2025-11-25 18:12:12.883,0.694249,0.780277,4.990755,0.012852,0.010776,0.978940,0.133261,0.101578,9.769547,0.001431,0.000127,-0.001269,0.818870,0.473724,-1.211843,100334.0000
1764074532986790301,2025-11-25 18:12:12.983,0.700529,0.790443,5.020609,0.013739,0.011579,0.978464,0.136773,0.175224,9.790355,0.004264,-0.003854,-0.003932,0.816486,0.476600,-1.210888,100331.0000
1764074533085695634,2025-11-25 18:12:13.082,0.697155,0.795428,5.045708,0.014323,0.011105,0.977838,0.143318,0.051629,9.767690,-0.005724,0.003481,-0.001614,0.818893,0.479913,-1.212901,100333.0000
1764074533187209115,2025-11-25 18:12:13.183,0.681121,0.798264,5.078548,0.014136,0.010551,0.977679,0.122461,0.182516,9.768684,0.000026,-0.002738,-0.002764,0.817909,0.474665,-1.212325,100332.0000
1764074533287205541,2025-11-25 18:12:13.283,0.672760,0.796180,5.109935,0.014424,0.009379,0.978308,0.156547,0.008728,9.786248,-0.001308,-0.000707,-0.004315,0.815042,0.475648,-1.210371,100333.0000
1764074533386378393,2025-11-25 18:12:13.383,0.670142,0.793477,5.138062,0.014172,0.008971,0.979268,0.116318,0.176353,9.782773,-0.003167,-0.004800,0.001558,0.817930,0.476606,-1.210910,100332.0000
1764074533486588597,2025-11-25 18:12:13.483,0.672585,0.788586,5.165913,0.013969,0.009100,0.979594,0.170854,0.018605,9.816575,0.004651,-0.001753,-0.002113,0.817438,0.476106,-1.211858,100333.0000
1764074533586255837,2025-11-25 18:12:13.583,0.683782,0.783399,5.192969,0.013663,0.009579,0.979104,0.116266,0.189589,9.771947,0.001133,0.000616,-0.001351,0.818878,0.476102,-1.212361,100332.0000
1764074533689333467,2025-11-25 18:12:13.683,0.695087,0.781040,5.220858,0.013790,0.010674,0.978596,0.170265,0.069491,9.808325,0.004948,-0.001017,-0.004425,0.816975,0.478035,-1.210917,100333.0000
1764074533786789745,2025-11-25 18:12:13.783,0.703910,0.783012,5.247791,0.013876,0.010266,0.978040,0.121370,0.126995,9.761431,-0.002191,0.003858,-0.001322,0.817948,0.479482,-1.210472,100328.0000
1764074533886763171,2025-11-25 18:12:13.883,0.704229,0.782983,5.276003,0.014125,0.010554,0.978337,0.161048,0.131789,9.818978,-0.000099,-0.002847,-0.006951,0.817940,0.479462,-1.211435,100331.0000
1764074533986757652,2025-11-25 18:12:13.983,0.700983,0.778006,5.301098,0.013795,0.009795,0.978496,0.129789,0.065193,9.761083,0.000809,0.000835,-0.001150,0.816491,0.475197,-1.209422,100335.0000
1764074534085492430,2025-11-25 18:12:14.083,0.699937,0.780815,5.325429,0.013567,0.010784,0.978564,0.113375,0.183854,9.789991,-0.001449,-0.004466,-0.005485,0.816979,0.478045,-1.210436,100333.0000
1764074534185806837,2025-11-25 18:12:14.182,0.691726,0.784865,5.350269,0.013094,0.010195,0.978405,0.150319,0.007675,9.775525,0.002815,-0.004986,-0.001111,0.816947,0.477018,-1.213791,100333.0000
1764074534286729041,2025-11-25 18:12:14.283,0.684816,0.795940,5.374603,0.013716,0.010786,0.978301,0.130398,0.193381,9.781314,-0.000733,-0.002363,-0.005222,0.815042,0.478006,-1.211852,100336.0000
1764074534386681541,2025-11-25 18:12:14.383,0.682778,0.800511,5.403324,0.014511,0.009867,0.978757,0.171471,-0.003582,9.783939,0.002907,0.001592,-0.005463,0.813603,0.478009,-1.211349,100336.0000
1764074534486335226,2025-11-25 18:12:14.483,0.679524,0.798624,5.429140,0.014552,0.009592,0.978849,0.121276,0.165576,9.780392,-0.001610,-0.000634,-0.002618,0.815516,0.476575,-1.211837,100338.0000
1764074534585923244,2025-11-25 18:12:14.583,0.684487,0.792696,5.456480,0.014296,0.008972,0.978945,0.152313,0.012389,9.801390,0.005000,0.003734,-0.003429,0.816987,0.480423,-1.210954,100330.0000
1764074534686614726,2025-11-25 18:12:14.683,0.689205,0.787294,5.481292,0.013712,0.009921,0.978629,0.106683,0.151031,9.765855,-0.003050,0.002343,0.000738,0.813623,0.479006,-1.209438,100334.0000
1764074534786559022,2025-11-25 18:12:14.783,0.700272,0.784214,5.505464,0.013231,0.010094,0.978475,0.153981,0.072659,9.809649,0.004346,-0.002178,-0.005707,0.816498,0.478988,-1.210925,100337.0000
1764074534886652207,2025-11-25 18:12:14.883,0.704733,0.786833,5.529940,0.013341,0.010982,0.978386,0.106294,0.142963,9.758735,-0.000836,-0.002308,0.001379,0.814107,0.481843,-1.210933,100327.0000
1764074534986782503,2025-11-25 18:12:14.983,0.704759,0.793439,5.555399,0.013977,0.010744,0.978700,0.139568,0.115706,9.819317,-0.001782,-0.001944,-0.003795,0.816492,0.478500,-1.211399,100337.0000
1764074535085443744,2025-11-25 18:12:15.082,0.697754,0.795057,5.579595,0.014555,0.010357,0.978697,0.141827,0.083734,9.764419,-0.004122,0.000498,0.000132,0.812649,0.481328,-1.212349,100329.0000
1764074535186487559,2025-11-25 18:12:15.183,0.689254,0.788070,5.603281,0.014287,0.010001,0.978747,0.132839,0.154311,9.796909,0.003447,0.000169,-0.004288,0.814581,0.478055,-1.209438,100327.0000
1764074535286431170,2025-11-25 18:12:15.283,0.682829,0.784164,5.625566,0.013975,0.009050,0.978945,0.148850,0.019980,9.774425,0.000937,0.000612,-0.003457,0.816023,0.479474,-1.210444,100335.0000
1764074535386574225,2025-11-25 18:12:15.383,0.683152,0.782967,5.646701,0.013312,0.009375,0.978753,0.112649,0.161135,9.780739,0.002659,-0.001803,-0.003401,0.814578,0.479934,-1.210912,100327.0000
1764074535486258114,2025-11-25 18:12:15.483,0.689559,0.787099,5.666192,0.012998,0.009321,0.978353,0.147629,0.005829,9.787657,0.003555,-0.002818,-0.000916,0.817451,0.480852,-1.213375,100334.0000
1764074535586532818,2025-11-25 18:12:15.583,0.700333,0.800682,5.687245,0.013106,0.010697,0.978334,0.118949,0.217628,9.773084,0.001559,-0.003983,-0.002244,0.816028,0.480429,-1.210459,100330.0000
1764074535688002503,2025-11-25 18:12:15.683,0.699112,0.815470,5.711951,0.014109,0.010769,0.978587,0.166183,0.025557,9.795156,0.002837,-0.004963,-0.002078,0.815523,0.479421,-1.212843,100337.0000
1764074535787259540,2025-11-25 18:12:15.783,0.692711,0.826009,5.737136,0.014957,0.010990,0.978846,0.128874,0.184436,9.773046,-0.006891,0.000588,-0.003615,0.814615,0.483329,-1.208556,100332.0000
1764074535887755929,2025-11-25 18:12:15.883,0.686658,0.822139,5.760421,0.015702,0.009759,0.979084,0.181336,0.038587,9.794925,0.005362,-0.002538,-0.004264,0.812659,0.481827,-1.211393,100338.0000
1764074535986492410,2025-11-25 18:12:15.983,0.685412,0.807991,5.781533,0.014975,0.009336,0.979112,0.119144,0.135963,9.767731,-0.002793,0.006353,0.000956,0.815053,0.480862,-1.212377,100336.0000
1764074536085442725,2025-11-25 18:12:16.082,0.691272,0.791583,5.800358,0.013973,0.009322,0.978987,0.146220,0.096768,9.814835,0.001777,0.001565,-0.005153,0.814102,0.480888,-1.210919,100328.0000
1764074536186423262,2025-11-25 18:12:16.183,0.697912,0.779079,5.816605,0.012471,0.010212,0.978358,0.094033,0.085422,9.755308,0.000062,0.002325,0.003366,0.813620,0.479940,-1.210416,100334.0000
1764074536286741614,2025-11-25 18:12:16.283,0.701166,0.782656,5.836262,0.012109,0.011110,0.978002,0.121518,0.151794,9.790183,-0.001850,-0.001098,-0.004888,0.815067,0.481370,-1.210940,100336.0000
1764074536387068558,2025-11-25 18:12:16.383,0.692273,0.796441,5.855358,0.012776,0.010496,0.977831,0.131953,0.072849,9.751643,0.003743,-0.004561,-0.000223,0.815066,0.482782,-1.211925,100327.0000
1764074536488635873,2025-11-25 18:12:16.483,0.687284,0.814138,5.875729,0.013893,0.009926,0.978619,0.149143,0.170140,9.810531,0.000861,-0.004329,-0.003892,0.813152,0.484217,-1.211437,100334.0000
1764074536586864854,2025-11-25 18:12:16.583,0.693164,0.824936,5.897842,0.014792,0.008950,0.978883,0.169034,0.015120,9.782339,0.005784,-0.000931,-0.000058,0.812670,0.484682,-1.211919,100336.0000
1764074536686745780,2025-11-25 18:12:16.683,0.699293,0.826812,5.917888,0.014645,0.010157,0.979329,0.125462,0.196636,9.793310,0.001960,0.000022,-0.005253,0.814583,0.482303,-1.211911,100332.0000
1764074536786810373,2025-11-25 18:12:16.783,0.702675,0.821363,5.934534,0.014666,0.010136,0.979136,0.173759,0.023531,9.790512,0.003834,-0.001178,-0.000774,0.812644,0.481786,-1.213319,100335.0000
1764074536886611724,2025-11-25 18:12:16.883,0.698187,0.811401,5.948804,0.014090,0.010921,0.978417,0.120309,0.208745,9.769547,-0.001028,0.002318,0.000376,0.813628,0.483731,-1.211918,100338.0000
1764074536987087354,2025-11-25 18:12:16.983,0.693140,0.800205,5.966408,0.014363,0.009945,0.978809,0.176518,0.023128,9.813141,0.002962,0.002039,-0.002455,0.812651,0.480861,-1.211860,100336.0000
1764074537085515280,2025-11-25 18:12:17.083,0.689501,0.792992,5.984377,0.013564,0.009852,0.978480,0.114044,0.182004,9.763593,-0.001945,0.001948,0.002082,0.813145,0.484197,-1.212400,100334.0000
1764074537186441613,2025-11-25 18:12:17.183,0.690896,0.790394,6.001864,0.013107,0.009908,0.978577,0.164600,0.060412,9.805863,0.003921,-0.003018,-0.003733,0.812688,0.483788,-1.209016,100332.0000
1764074537286881687,2025-11-25 18:12:17.283,0.693983,0.794194,6.019357,0.013110,0.010164,0.978291,0.119903,0.122668,9.763179,-0.001470,0.000251,0.001185,0.815073,0.484215,-1.211947,100338.0000
1764074537386133020,2025-11-25 18:12:17.383,0.692658,0.803659,6.034729,0.013450,0.010509,0.978338,0.146119,0.102044,9.828722,0.003267,-0.001941,-0.003909,0.814584,0.484193,-1.212903,100331.0000
1764074537486680224,2025-11-25 18:12:17.483,0.689786,0.813516,6.055447,0.014044,0.009945,0.978597,0.136442,0.074913,9.771421,-0.001472,-0.003425,0.001315,0.814567,0.482262,-1.213836,100334.0000
1764074537586371483,2025-11-25 18:12:17.583,0.687875,0.820375,6.067957,0.014063,0.009821,0.979120,0.125962,0.136447,9.805683,0.004110,-0.001487,-0.003227,0.815553,0.480915,-1.209977,100338.0000
1764074537686082687,2025-11-25 18:12:17.683,0.689545,0.824375,6.081545,0.014430,0.009261,0.979390,0.150796,0.030557,9.783249,-0.000855,0.000823,-0.001685,0.812199,0.482820,-1.209476,100336.0000
1764074537786229428,2025-11-25 18:12:17.783,0.695148,0.826168,6.095999,0.014435,0.010464,0.979238,0.136567,0.184997,9.780905,0.007042,-0.001000,-0.000196,0.813640,0.484707,-1.210970,100332.0000
1764074537886673705,2025-11-25 18:12:17.883,0.699329,0.819388,6.109562,0.014721,0.009853,0.978624,0.153240,0.004151,9.785260,-0.001126,0.002035,-0.000781,0.814581,0.482770,-1.212399,100334.0000
1764074537986473279,2025-11-25 18:12:17.983,0.700754,0.808484,6.125419,0.014381,0.010558,0.978177,0.126539,0.188423,9.772750,0.002396,0.001576,-0.001259,0.811691,0.481334,-1.211853,100328.0000
1764074538085624594,2025-11-25 18:12:18.083,0.693930,0.795704,6.141799,0.013801,0.009995,0.978134,0.162709,0.002111,9.791896,-0.004632,0.001052,-0.004388,0.815084,0.485659,-1.211488,100335.0000
1764074538186242390,2025-11-25 18:12:18.183,0.689385,0.786831,6.156146,0.013159,0.010387,0.978281,0.101253,0.178245,9.772925,0.000465,-0.002696,0.002674,0.814100,0.482768,-1.212392,100335.0000
1764074538286363279,2025-11-25 18:12:18.283,0.686336,0.789887,6.168674,0.012659,0.009788,0.978884,0.155319,0.050603,9.796254,-0.003025,0.001406,-0.001507,0.815554,0.485630,-1.212939,100328.0000
1764074538386694057,2025-11-25 18:12:18.383,0.679855,0.799151,6.180370,0.012916,0.009935,0.979287,0.118180,0.141600,9.786281,-0.001088,-0.004360,0.002577,0.813161,0.485183,-1.210970,100337.0000
1764074538487002853,2025-11-25 18:12:18.483,0.675849,0.815165,6.192424,0.013491,0.009895,0.978932,0.153925,0.068829,9.812078,0.001318,-0.004046,-0.002738,0.813626,0.482786,-1.211422,100338.0000
1764074538586431334,2025-11-25 18:12:18.583,0.676192,0.827202,6.206449,0.014537,0.009607,0.978315,0.144952,0.108758,9.761769,-0.000095,-0.002080,0.004651,0.813152,0.485630,-1.212422,100331.0000
1764074538686962520,2025-11-25 18:12:18.683,0.681498,0.831492,6.224762,0.014863,0.010014,0.978274,0.150266,0.143980,9.807930,0.002714,-0.003076,-0.002332,0.813161,0.485183,-1.210970,100338.0000
1764074538786495205,2025-11-25 18:12:18.783,0.689813,0.827527,6.237030,0.014876,0.009926,0.978454,0.150650,0.059579,9.758072,-0.001247,0.003238,0.001825,0.812674,0.484693,-1.211437,100334.0000
1764074538886523890,2025-11-25 18:12:18.883,0.691111,0.815354,6.248673,0.014613,0.010622,0.978938,0.131466,0.173906,9.791543,0.004741,0.002471,-0.000867,0.814594,0.484691,-1.211947,100336.0000
1764074538986766519,2025-11-25 18:12:18.983,0.691985,0.805835,6.256658,0.013780,0.010422,0.979361,0.146933,0.012934,9.792646,-0.005597,0.001629,-0.000485,0.814602,0.483766,-1.210489,100333.0000
1764074539085433371,2025-11-25 18:12:19.082,0.684331,0.798992,6.261278,0.013019,0.010685,0.978858,0.102948,0.190906,9.776689,-0.000659,0.000586,0.000108,0.811703,0.483723,-1.211890,100330.0000
1764074539186095223,2025-11-25 18:12:19.183,0.678702,0.802059,6.274486,0.013104,0.009504,0.978227,0.174261,0.000108,9.788024,-0.001549,-0.003861,-0.002280,0.813171,0.487093,-1.211000,100338.0000
1764074539289345038,2025-11-25 18:12:19.283,0.674450,0.811298,6.289207,0.012953,0.009686,0.977772,0.096992,0.163251,9.762223,0.002989,-0.002580,0.001266,0.812689,0.484733,-1.209512,100335.0000
1764074539386606001,2025-11-25 18:12:19.383,0.673522,0.820777,6.305360,0.014040,0.009096,0.978274,0.162481,0.028471,9.809711,-0.001362,-0.005568,-0.005807,0.810767,0.486615,-1.210476,100336.0000
1764074539487012575,2025-11-25 18:12:19.483,0.680037,0.827722,6.313052,0.013989,0.009355,0.978726,0.124365,0.137567,9.772306,0.002558,-0.001946,0.006606,0.813168,0.484258,-1.209512,100340.0000
1764074539586694223,2025-11-25 18:12:19.583,0.685519,0.829059,6.319505,0.014369,0.010333,0.979260,0.162787,0.082367,9.816894,0.001865,-0.004381,-0.002255,0.811703,0.484668,-1.212386,100336.0000
1764074539687875149,2025-11-25 18:12:19.684,0.688284,0.832929,6.317180,0.014307,0.010490,0.979134,0.149240,0.109374,9.766993,0.003148,-0.000641,0.004725,0.812201,0.485656,-1.210964,100334.0000
1764074539786779241,2025-11-25 18:12:19.783,0.682141,0.832304,6.321866,0.013994,0.010998,0.978897,0.148939,0.142366,9.794205,-0.002336,-0.000716,-0.003918,0.812690,0.488037,-1.211489,100338.0000
1764074539886699482,2025-11-25 18:12:19.883,0.672345,0.825981,6.331419,0.014640,0.010250,0.978650,0.130964,0.044637,9.756859,-0.000511,0.000167,0.004564,0.812181,0.482302,-1.211393,100337.0000
1764074539986709315,2025-11-25 18:12:19.983,0.664405,0.820830,6.345659,0.014072,0.010062,0.978568,0.116265,0.161186,9.790574,0.000449,0.000186,-0.003590,0.812675,0.484225,-1.210949,100329.0000
1764074540085990741,2025-11-25 18:12:20.083,0.660091,0.812278,6.355806,0.013687,0.009048,0.978386,0.156227,0.028124,9.769639,0.002564,-0.000141,0.002752,0.812667,0.484205,-1.211912,100332.0000
1764074540186567426,2025-11-25 18:12:20.183,0.664645,0.810877,6.360910,0.013357,0.009561,0.978505,0.125714,0.194372,9.791962,0.005457,-0.000197,0.002242,0.814598,0.482344,-1.209985,100336.0000
1764074540286548593,2025-11-25 18:12:20.283,0.675847,0.810672,6.361538,0.013381,0.009437,0.978675,0.158351,0.000679,9.777756,0.000256,0.001672,0.001204,0.814103,0.484191,-1.212896,100330.0000
1764074540386249019,2025-11-25 18:12:20.383,0.684308,0.813541,6.358609,0.013303,0.010269,0.978583,0.105708,0.214884,9.775091,0.003358,-0.000856,0.003370,0.813639,0.486120,-1.211955,100333.0000
1764074540487815574,2025-11-25 18:12:20.483,0.689402,0.825496,6.363909,0.013608,0.010325,0.978506,0.158115,0.029179,9.814569,-0.002708,-0.003147,-0.001692,0.814110,0.483266,-1.211437,100328.0000
1764074540587011630,2025-11-25 18:12:20.583,0.691977,0.834127,6.369961,0.014128,0.010925,0.978577,0.121417,0.169586,9.767221,0.001453,0.000243,0.001944,0.811231,0.485631,-1.211912,100338.0000
1764074540686548518,2025-11-25 18:12:20.683,0.686075,0.841500,6.379292,0.014448,0.010986,0.978916,0.183338,0.049735,9.821500,0.001742,-0.008820,-0.004618,0.813170,0.486148,-1.210504,100334.0000
1764074540785742889,2025-11-25 18:12:20.783,0.674545,0.839359,6.387890,0.015067,0.010682,0.979007,0.126369,0.127441,9.764796,-0.000980,0.003810,0.004033,0.813641,0.483294,-1.209985,100336.0000
1764074540886754148,2025-11-25 18:12:20.883,0.665723,0.828361,6.391367,0.014933,0.010469,0.979097,0.150839,0.117042,9.807730,0.000580,-0.001079,0.003328,0.813627,0.485144,-1.212903,100333.0000
1764074540987499777,2025-11-25 18:12:20.983,0.656028,0.814407,6.390893,0.014446,0.008993,0.978841,0.146775,0.048077,9.765314,0.000807,0.002830,0.005155,0.811233,0.485164,-1.211423,100333.0000
1764074541085409759,2025-11-25 18:12:21.082,0.653291,0.803941,6.390656,0.012657,0.008973,0.978642,0.121213,0.135003,9.797048,0.004731,-0.004032,-0.000179,0.812663,0.483249,-1.211897,100337.0000
1764074541186578500,2025-11-25 18:12:21.183,0.665279,0.805884,6.392882,0.012363,0.008784,0.978267,0.122704,0.014453,9.768826,0.000100,-0.002922,0.001501,0.813621,0.483243,-1.212392,100333.0000
1764074541286813462,2025-11-25 18:12:21.283,0.678355,0.818547,6.397328,0.012871,0.009745,0.978071,0.103906,0.187654,9.777418,0.005071,-0.005555,-0.001092,0.812182,0.484192,-1.212386,100328.0000
1764074541387093685,2025-11-25 18:12:21.382,0.691722,0.836392,6.403851,0.014367,0.010002,0.978464,0.151938,0.008035,9.783345,0.001712,-0.001013,0.001312,0.813147,0.484674,-1.212407,100335.0000
1764074541486219388,2025-11-25 18:12:21.483,0.698484,0.847321,6.404334,0.014865,0.011138,0.978432,0.149450,0.207472,9.777203,0.001540,-0.001810,0.001932,0.812167,0.481794,-1.212831,100332.0000
1764074541586691796,2025-11-25 18:12:21.583,0.699174,0.844053,6.399637,0.015357,0.011064,0.978893,0.163175,0.031552,9.807377,0.004291,0.000477,0.000795,0.812679,0.484235,-1.210467,100334.0000
1764074541687396833,2025-11-25 18:12:21.683,0.690544,0.829556,6.393599,0.014336,0.010922,0.978937,0.107159,0.148319,9.769361,0.003393,0.000978,0.002579,0.814114,0.483276,-1.210956,100330.0000
1764074541786823925,2025-11-25 18:12:21.783,0.679125,0.819762,6.391804,0.013377,0.009991,0.979113,0.155460,0.037277,9.820156,-0.000136,0.001365,-0.001895,0.815071,0.483738,-1.211940,100338.0000
1764074541886555295,2025-11-25 18:12:21.883,0.670804,0.815291,6.389845,0.013250,0.009329,0.978996,0.111805,0.125590,9.777079,0.002269,-0.000857,0.004091,0.815572,0.486149,-1.211021,100338.0000
1764074541986545203,2025-11-25 18:12:21.983,0.666300,0.818890,6.390805,0.013458,0.009497,0.979087,0.160656,0.113789,9.798636,0.002667,-0.003629,-0.002570,0.812194,0.484223,-1.210942,100330.0000
1764074542086723332,2025-11-25 18:12:22.083,0.667717,0.825357,6.389404,0.013862,0.009150,0.978788,0.140218,0.059491,9.757564,0.002491,0.001876,0.002330,0.812674,0.483280,-1.210453,100334.0000
1764074542186421777,2025-11-25 18:12:22.183,0.675792,0.828248,6.385583,0.014190,0.009691,0.978566,0.160504,0.131535,9.801120,0.000249,-0.001611,-0.000616,0.813137,0.481818,-1.211882,100334.0000
1764074542286721703,2025-11-25 18:12:22.283,0.684819,0.826048,6.381410,0.014248,0.010027,0.978629,0.177221,0.028097,9.770205,0.001041,0.000267,0.007540,0.812200,0.486124,-1.211452,100337.0000
1764074542386767943,2025-11-25 18:12:22.382,0.699059,0.823126,6.371749,0.013823,0.010169,0.978379,0.105006,0.190269,9.782558,0.007256,-0.000434,0.001889,0.813620,0.482298,-1.211896,100328.0000
1764074542486759999,2025-11-25 18:12:22.483,0.702848,0.821984,6.363242,0.013744,0.010927,0.978500,0.150834,0.018111,9.782774,-0.003083,-0.000655,0.002855,0.812164,0.481316,-1.212823,100333.0000
1764074542586716277,2025-11-25 18:12:22.583,0.699318,0.823369,6.354246,0.013483,0.011085,0.978566,0.100068,0.176397,9.774542,-0.000714,-0.002201,0.003394,0.816503,0.483714,-1.213405,100328.0000
1764074542686653962,2025-11-25 18:12:22.683,0.687856,0.828308,6.351574,0.014023,0.010729,0.978575,0.171226,0.022971,9.803345,-0.000149,-0.002573,-0.000591,0.814599,0.483288,-1.210482,100326.0000
1764074542786482110,2025-11-25 18:12:22.783,0.676301,0.832174,6.344957,0.013671,0.009344,0.978377,0.111754,0.175863,9.760906,0.004277,0.000469,0.006926,0.815554,0.481860,-1.210473,100338.0000
1764074542886954758,2025-11-25 18:12:22.883,0.673883,0.835796,6.338776,0.014053,0.009128,0.978873,0.158912,0.036678,9.815599,-0.000366,-0.001727,0.000726,0.814578,0.479934,-1.210912,100334.0000
1764074542986837295,2025-11-25 18:12:22.983,0.677987,0.834667,6.330909,0.014113,0.008802,0.978817,0.121606,0.111307,9.780237,0.005061,0.001634,0.007734,0.813139,0.483709,-1.212874,100324.0000
1764074543085631147,2025-11-25 18:12:23.082,0.689187,0.833170,6.326085,0.014094,0.009777,0.979172,0.145880,0.100218,9.804632,-0.000664,-0.000737,-0.002689,0.814564,0.479426,-1.212348,100341.0000
1764074543189784961,2025-11-25 18:12:23.183,0.696793,0.831935,6.321542,0.013994,0.010960,0.978902,0.128514,0.082055,9.757575,-0.002341,0.001786,0.003855,0.813607,0.480377,-1.212349,100329.0000
1764074543287072591,2025-11-25 18:12:23.283,0.690284,0.827623,6.311810,0.014062,0.011475,0.978734,0.127467,0.153047,9.816285,-0.005751,0.000980,0.000225,0.816528,0.484252,-1.210524,100338.0000
1764074543386792498,2025-11-25 18:12:23.383,0.679453,0.826951,6.300808,0.014276,0.010045,0.978373,0.146058,0.015917,9.762903,-0.000074,0.000291,0.006477,0.816987,0.480423,-1.210954,100336.0000
1764074543486600702,2025-11-25 18:12:23.483,0.670857,0.820650,6.292133,0.013701,0.009878,0.977776,0.109631,0.193547,9.777431,0.002265,0.000238,0.002557,0.814138,0.484282,-1.208563,100332.0000
1764074543585919628,2025-11-25 18:12:23.582,0.667908,0.812259,6.284304,0.013869,0.009042,0.978204,0.143983,-0.007629,9.778207,0.001334,0.003195,0.002367,0.816040,0.482817,-1.210495,100334.0000
1764074543689469813,2025-11-25 18:12:23.683,0.675309,0.807940,6.278143,0.013474,0.009802,0.978556,0.099152,0.198589,9.783160,0.002600,-0.004777,0.006405,0.813629,0.480906,-1.209949,100334.0000
1764074543786968831,2025-11-25 18:12:23.783,0.684669,0.811076,6.270266,0.012868,0.009337,0.978844,0.148572,0.007507,9.809299,0.010796,-0.004161,0.000755,0.814593,0.481388,-1.209970,100334.0000
1764074543888090183,2025-11-25 18:12:23.883,0.696000,0.821073,6.259027,0.012846,0.010356,0.978997,0.089891,0.186786,9.765305,0.001597,-0.002082,0.005732,0.815559,0.482815,-1.210488,100336.0000
1764074543986896942,2025-11-25 18:12:23.983,0.696179,0.837942,6.250579,0.013379,0.010467,0.979082,0.150858,0.040691,9.813110,-0.002480,-0.005490,-0.000239,0.815058,0.482762,-1.212888,100334.0000
1764074544085505146,2025-11-25 18:12:24.083,0.691661,0.854660,6.239563,0.014103,0.011031,0.978874,0.106325,0.157914,9.773954,0.001909,-0.006425,0.005526,0.816970,0.479437,-1.212383,100334.0000
1764074544186373646,2025-11-25 18:12:24.183,0.681628,0.863314,6.231861,0.015098,0.010605,0.978398,0.159418,0.088450,9.798986,0.000921,-0.000833,-0.002297,0.816967,0.478014,-1.211880,100338.0000
1764074544286558868,2025-11-25 18:12:24.283,0.671577,0.859323,6.223152,0.015249,0.009650,0.978204,0.134595,0.108643,9.745668,0.003016,0.002328,0.006523,0.815064,0.480892,-1.210933,100338.0000
1764074544386585924,2025-11-25 18:12:24.383,0.667423,0.843961,6.217706,0.014982,0.009248,0.978431,0.156297,0.097064,9.794350,0.003970,0.001644,0.000738,0.816012,0.481801,-1.213369,100330.0000
1764074544486826738,2025-11-25 18:12:24.483,0.669201,0.823421,6.209178,0.014008,0.008608,0.978662,0.130340,0.049416,9.751159,0.002859,0.004010,0.006618,0.815534,0.480864,-1.212384,100339.0000
1764074544587051609,2025-11-25 18:12:24.583,0.682374,0.806035,6.197352,0.013051,0.009433,0.978617,0.128376,0.151152,9.813549,0.004421,0.002198,0.001317,0.815048,0.478494,-1.211378,100330.0000
1764074544687331646,2025-11-25 18:12:24.683,0.694666,0.804128,6.190741,0.012531,0.009909,0.978678,0.150019,0.044336,9.765180,0.002050,0.000820,0.004253,0.817465,0.479947,-1.210954,100335.0000
1764074544787290609,2025-11-25 18:12:24.783,0.704097,0.810651,6.180391,0.013124,0.011058,0.978735,0.128317,0.200174,9.798570,0.004786,-0.004127,0.003814,0.816494,0.478978,-1.211406,100334.0000
1764074544887118960,2025-11-25 18:12:24.883,0.705761,0.826268,6.168923,0.013790,0.010372,0.978666,0.144050,0.001194,9.772257,-0.000329,-0.001709,0.004285,0.816971,0.478025,-1.211399,100334.0000
1764074544986525312,2025-11-25 18:12:24.983,0.702859,0.837999,6.157151,0.014366,0.011158,0.978462,0.134255,0.212013,9.788440,0.001932,-0.003920,0.000090,0.816492,0.480858,-1.212880,100335.0000
1764074545085557164,2025-11-25 18:12:25.083,0.697141,0.847047,6.148808,0.014676,0.009992,0.978692,0.173838,-0.005712,9.791220,-0.004723,-0.002542,0.006121,0.816024,0.481831,-1.211925,100334.0000
1764074545186535645,2025-11-25 18:12:25.183,0.686224,0.851215,6.140078,0.014302,0.010295,0.978357,0.118591,0.185546,9.775490,0.004851,-0.002185,0.005285,0.819834,0.475618,-1.212849,100334.0000
1764074545286979571,2025-11-25 18:12:25.283,0.682339,0.847426,6.127606,0.015027,0.009349,0.979012,0.186645,-0.003509,9.805803,-0.000927,-0.001650,0.000186,0.816006,0.477543,-1.211377,100339.0000
1764074545386928164,2025-11-25 18:12:25.383,0.680411,0.839706,6.117358,0.014614,0.009503,0.978873,0.113200,0.176409,9.772582,-0.002012,0.002224,0.005676,0.815993,0.475622,-1.211829,100336.0000
1764074545486989349,2025-11-25 18:12:25.483,0.685086,0.831694,6.110231,0.014229,0.009591,0.978866,0.154257,0.065859,9.801282,0.003193,-0.002595,-0.000172,0.816987,0.479010,-1.209969,100334.0000
1764074545586822497,2025-11-25 18:12:25.583,0.692418,0.821927,6.102430,0.013447,0.009992,0.978648,0.125539,0.128612,9.777642,0.003421,0.000990,0.005199,0.815054,0.476624,-1.209423,100337.0000
1764074545687193349,2025-11-25 18:12:25.683,0.694821,0.820248,6.095815,0.013215,0.010566,0.978763,0.145578,0.094026,9.810728,0.002175,-0.000892,-0.002752,0.815498,0.476056,-1.213755,100330.0000
1764074545786375608,2025-11-25 18:12:25.783,0.697656,0.826048,6.083521,0.013017,0.010346,0.978323,0.126113,0.093426,9.765152,0.004314,-0.003320,0.007308,0.816006,0.477543,-1.211377,100333.0000
1764074545886464682,2025-11-25 18:12:25.883,0.698885,0.837772,6.070720,0.013436,0.010255,0.978000,0.146102,0.140974,9.795064,-0.001546,-0.004669,0.001506,0.816934,0.476042,-1.214739,100332.0000
1764074545986845571,2025-11-25 18:12:25.983,0.692502,0.848765,6.056834,0.014509,0.009842,0.977991,0.146750,0.052589,9.754539,0.007321,-0.001568,0.009368,0.815509,0.476554,-1.212800,100340.0000
1764074546085373793,2025-11-25 18:12:26.082,0.690641,0.851885,6.047980,0.014877,0.009962,0.978368,0.160554,0.144224,9.803401,0.000922,0.000965,0.002876,0.816483,0.477535,-1.211866,100334.0000
1764074546186060423,2025-11-25 18:12:26.183,0.691972,0.845448,6.038076,0.015415,0.009480,0.978852,0.174141,0.030861,9.771419,0.008412,0.002213,0.005242,0.816954,0.474681,-1.211348,100334.0000
1764074546286165422,2025-11-25 18:12:26.283,0.694826,0.831474,6.028656,0.014286,0.009684,0.979524,0.135027,0.181231,9.796496,-0.000140,-0.000363,0.004630,0.817458,0.478514,-1.210932,100333.0000
1764074546386783996,2025-11-25 18:12:26.383,0.703290,0.818913,6.020137,0.013681,0.009676,0.979373,0.136591,-0.007613,9.778971,0.001271,0.002156,0.006838,0.816472,0.476091,-1.212325,100334.0000
1764074546486613700,2025-11-25 18:12:26.483,0.708794,0.812178,6.011537,0.012612,0.010742,0.979006,0.119882,0.215509,9.792387,0.001326,-0.001642,0.001340,0.818429,0.477126,-1.208999,100332.0000
1764074546586724552,2025-11-25 18:12:26.583,0.706357,0.813987,6.002334,0.013262,0.010532,0.978255,0.141376,0.019625,9.779700,0.001523,-0.005407,0.003117,0.817940,0.477104,-1.209954,100338.0000
1764074546686331219,2025-11-25 18:12:26.683,0.700084,0.819630,5.989846,0.013388,0.010741,0.977722,0.112159,0.174818,9.769875,-0.000886,-0.000710,0.005837,0.817444,0.475648,-1.210888,100336.0000
1764074546786630607,2025-11-25 18:12:26.783,0.690120,0.827515,5.982209,0.013842,0.009447,0.978132,0.178677,0.003219,9.803940,0.002066,-0.003177,0.002462,0.816001,0.474229,-1.209882,100327.0000
1764074546886444126,2025-11-25 18:12:26.883,0.681734,0.832228,5.975036,0.014066,0.009296,0.978732,0.107116,0.192661,9.770171,0.001844,-0.000194,0.006510,0.818885,0.477535,-1.212383,100332.0000
1764074546987984367,2025-11-25 18:12:26.983,0.682980,0.833973,5.971611,0.014315,0.009189,0.979330,0.178926,0.035024,9.826082,0.002137,-0.000606,-0.000717,0.817436,0.475628,-1.211851,100334.0000
1764074547085448292,2025-11-25 18:12:27.082,0.692060,0.831934,5.962183,0.013948,0.009397,0.979052,0.120137,0.134725,9.773705,0.001915,0.002096,0.006462,0.819373,0.476612,-1.210931,100338.0000
1764074547187184089,2025-11-25 18:12:27.183,0.701617,0.826776,5.958477,0.014150,0.009784,0.978793,0.176766,0.083961,9.812200,0.000727,-0.000212,-0.003084,0.818393,0.476089,-1.212835,100335.0000
1764074547287488866,2025-11-25 18:12:27.283,0.711655,0.820715,5.949480,0.014028,0.010548,0.978529,0.117319,0.107904,9.747447,0.004113,0.000763,0.008236,0.818880,0.474222,-1.210887,100335.0000
1764074547386766996,2025-11-25 18:12:27.383,0.714003,0.817873,5.941170,0.013642,0.011215,0.978301,0.152885,0.145887,9.799587,-0.001344,-0.002797,0.000504,0.820312,0.471840,-1.210872,100336.0000
1764074547485860014,2025-11-25 18:12:27.483,0.709209,0.819410,5.936462,0.013290,0.010908,0.978562,0.131770,0.070822,9.771628,-0.001184,-0.005404,0.005941,0.819350,0.474193,-1.212338,100332.0000
1764074547586811125,2025-11-25 18:12:27.583,0.697562,0.825800,5.929626,0.013309,0.010758,0.978839,0.135250,0.156251,9.807622,-0.002296,0.001697,0.002236,0.820338,0.475682,-1.209968,100334.0000
1764074547688320829,2025-11-25 18:12:27.683,0.685369,0.827380,5.927409,0.014275,0.009030,0.978950,0.160254,0.011320,9.779640,0.002429,0.003555,0.004888,0.817920,0.476108,-1.211865,100328.0000
1764074547790464125,2025-11-25 18:12:27.783,0.684242,0.825474,5.919720,0.014494,0.008814,0.979114,0.129718,0.190558,9.796912,0.000483,0.000238,0.004862,0.818874,0.473734,-1.211361,100341.0000
1764074547886818199,2025-11-25 18:12:27.883,0.697038,0.819848,5.913283,0.014233,0.008555,0.978936,0.145053,-0.014079,9.796977,0.002035,0.000929,0.004113,0.819846,0.474236,-1.210420,100333.0000
1764074547986693570,2025-11-25 18:12:27.983,0.715363,0.816893,5.906926,0.013513,0.010150,0.978677,0.116365,0.208646,9.775376,0.002566,0.000083,0.001330,0.817908,0.473719,-1.211829,100331.0000
1764074548085393644,2025-11-25 18:12:28.082,0.725733,0.814672,5.903571,0.014047,0.011217,0.978341,0.173139,0.035230,9.786208,0.001022,0.004251,0.001325,0.819827,0.474185,-1.212827,100334.0000
1764074548186680625,2025-11-25 18:12:28.183,0.724947,0.816257,5.903287,0.013482,0.012139,0.978016,0.122369,0.193855,9.762415,-0.004664,-0.000005,0.004807,0.820327,0.475651,-1.211412,100331.0000
1764074548286501644,2025-11-25 18:12:28.283,0.709829,0.818301,5.902712,0.013927,0.010975,0.978229,0.145680,0.054920,9.804200,-0.004409,0.001648,-0.003490,0.820321,0.473751,-1.210901,100331.0000
1764074548386860236,2025-11-25 18:12:28.383,0.690077,0.819672,5.903663,0.014066,0.009793,0.978354,0.093497,0.118864,9.754246,-0.002488,-0.000921,0.008522,0.817906,0.474187,-1.212317,100331.0000
1764074548486584180,2025-11-25 18:12:28.483,0.680629,0.814223,5.900854,0.013693,0.009177,0.978911,0.145850,0.094455,9.812768,0.002061,-0.000528,0.001040,0.821290,0.474243,-1.210441,100340.0000
1764074548587132958,2025-11-25 18:12:28.583,0.686017,0.810870,5.894150,0.013592,0.008436,0.979103,0.122375,0.075199,9.773426,0.004233,0.002180,0.003244,0.820797,0.471852,-1.210398,100334.0000
1764074548687992032,2025-11-25 18:12:28.683,0.699952,0.817949,5.889908,0.013103,0.010106,0.978925,0.118662,0.151456,9.807476,0.007461,-0.003389,0.002244,0.820302,0.472287,-1.212324,100334.0000
1764074548786766032,2025-11-25 18:12:28.783,0.709995,0.831912,5.890059,0.013590,0.010827,0.978936,0.139445,0.036947,9.767738,-0.003413,0.001968,0.002570,0.820811,0.472361,-1.208961,100338.0000
1764074548886781569,2025-11-25 18:12:28.883,0.706919,0.843649,5.894252,0.014286,0.011040,0.978696,0.141186,0.189900,9.793647,0.002268,-0.003301,0.001744,0.818387,0.474189,-1.212324,100331.0000
1764074548987287662,2025-11-25 18:12:28.983,0.703195,0.848028,5.894558,0.015130,0.010129,0.978557,0.170112,-0.009730,9.779315,-0.002778,-0.001726,-0.000289,0.819328,0.471307,-1.213257,100330.0000
1764074549085399569,2025-11-25 18:12:29.082,0.701138,0.841149,5.896173,0.015035,0.009727,0.977979,0.119160,0.178756,9.779860,0.002537,-0.002648,0.002504,0.818895,0.475675,-1.209947,100334.0000
1764074549187509069,2025-11-25 18:12:29.183,0.697331,0.822464,5.896100,0.014550,0.009033,0.978374,0.168512,0.027097,9.806816,0.003064,0.006523,-0.002206,0.819329,0.470839,-1.212769,100348.0000
1764074549288012050,2025-11-25 18:12:29.283,0.706048,0.808606,5.895580,0.013283,0.009791,0.978709,0.090252,0.162677,9.766250,0.003617,0.001473,0.001591,0.820307,0.473242,-1.212338,100332.0000
1764074549386919143,2025-11-25 18:12:29.383,0.713690,0.801868,5.894461,0.012324,0.010126,0.979205,0.150949,0.063176,9.805251,0.001465,0.000539,-0.003698,0.820332,0.476607,-1.211426,100336.0000
1764074549486931624,2025-11-25 18:12:29.483,0.718130,0.811874,5.895118,0.012651,0.010750,0.979124,0.102832,0.138128,9.765501,0.003153,-0.000998,0.003472,0.819839,0.472803,-1.210399,100331.0000
1764074549586007735,2025-11-25 18:12:29.582,0.716548,0.830718,5.899052,0.013291,0.011009,0.979062,0.154852,0.103533,9.816071,-0.001699,-0.002505,-0.002709,0.820325,0.473761,-1.210420,100331.0000
1764074549686369328,2025-11-25 18:12:29.683,0.708977,0.846725,5.901704,0.014445,0.009946,0.978351,0.133072,0.071130,9.744320,0.003558,-0.003506,0.007403,0.821274,0.471844,-1.210886,100334.0000
1764074549786502383,2025-11-25 18:12:29.783,0.702500,0.850959,5.904071,0.014968,0.009506,0.978414,0.153240,0.129836,9.803571,-0.003555,-0.003264,-0.002583,0.821757,0.473737,-1.211886,100333.0000
1764074549886810846,2025-11-25 18:12:29.883,0.699220,0.847780,5.901579,0.015203,0.008802,0.978535,0.169173,0.024344,9.778269,0.004937,0.002670,0.004953,0.821271,0.475137,-1.213344,100330.0000
1764074549987554717,2025-11-25 18:12:29.983,0.707883,0.838996,5.900091,0.014593,0.009467,0.978700,0.122510,0.191883,9.800100,-0.001400,0.004893,-0.000827,0.817899,0.470396,-1.210814,100341.0000
1764074550086503217,2025-11-25 18:12:30.083,0.718792,0.821601,5.899467,0.014120,0.009640,0.978974,0.162237,0.017651,9.789529,0.006285,0.001162,0.001322,0.821282,0.471865,-1.209924,100330.0000
1764074550186481031,2025-11-25 18:12:30.183,0.731859,0.807879,5.899165,0.013448,0.010810,0.978725,0.109509,0.201000,9.781178,0.002770,0.001774,-0.000134,0.820790,0.472777,-1.211857,100334.0000
1764074550286605068,2025-11-25 18:12:30.283,0.741545,0.798482,5.902864,0.012896,0.010557,0.978420,0.147456,0.006421,9.790838,0.003982,0.002876,-0.000749,0.819331,0.472730,-1.213761,100337.0000
1764074550386421846,2025-11-25 18:12:30.383,0.736262,0.798469,5.906658,0.013186,0.010931,0.978409,0.117824,0.186462,9.779161,0.004322,-0.001607,0.000651,0.823216,0.473784,-1.209981,100330.0000
1764074550487015364,2025-11-25 18:12:30.483,0.730948,0.807021,5.911354,0.013365,0.010189,0.978899,0.159679,0.026405,9.801961,-0.000725,0.000823,-0.002034,0.821758,0.473269,-1.211397,100334.0000
1764074550586834457,2025-11-25 18:12:30.583,0.724067,0.819448,5.914223,0.013658,0.010219,0.978739,0.119744,0.124979,9.757109,-0.000093,-0.000197,0.008199,0.820323,0.474228,-1.210909,100336.0000
1764074550687190661,2025-11-25 18:12:30.683,0.720664,0.826830,5.917640,0.014260,0.009403,0.979017,0.161961,0.057919,9.823444,-0.004024,0.001253,-0.003592,0.819336,0.472272,-1.212791,100328.0000
1764074550788567272,2025-11-25 18:12:30.783,0.722901,0.830695,5.913404,0.014605,0.009303,0.978955,0.145186,0.080087,9.780860,-0.001453,0.001467,0.003525,0.821758,0.473269,-1.211397,100326.0000
1764074550886682698,2025-11-25 18:12:30.883,0.728169,0.826477,5.917313,0.014783,0.009934,0.978748,0.167263,0.140250,9.826014,0.002195,0.002416,-0.005827,0.820302,0.471342,-1.211828,100342.0000
1764074550986718957,2025-11-25 18:12:30.983,0.738053,0.813654,5.923530,0.015052,0.009926,0.978756,0.151835,0.053565,9.763595,-0.001284,0.003789,-0.000164,0.819342,0.471815,-1.211821,100336.0000
1764074551085697290,2025-11-25 18:12:31.083,0.739935,0.798492,5.927520,0.014106,0.011079,0.978988,0.119201,0.188482,9.807688,0.001856,0.000798,-0.001001,0.819330,0.470372,-1.212280,100334.0000
1764074551186642716,2025-11-25 18:12:31.183,0.737514,0.784380,5.927404,0.013437,0.010181,0.978678,0.146058,-0.005915,9.781292,-0.000013,-0.000127,0.000813,0.819350,0.472781,-1.211354,100336.0000
1764074551286872845,2025-11-25 18:12:31.283,0.737188,0.780535,5.925988,0.012830,0.010155,0.978395,0.112079,0.191088,9.780076,0.003316,-0.000788,-0.000493,0.820776,0.472269,-1.213294,100334.0000
1764074551386926549,2025-11-25 18:12:31.383,0.742588,0.780649,5.926741,0.013044,0.009312,0.978029,0.145763,0.000079,9.789035,-0.001856,0.004081,0.000132,0.819355,0.473736,-1.211368,100338.0000
1764074551487371679,2025-11-25 18:12:31.483,0.749636,0.791247,5.928123,0.013421,0.010029,0.977880,0.104803,0.187262,9.777405,0.001761,-0.004139,0.001736,0.816471,0.472788,-1.210349,100332.0000
1764074551586663142,2025-11-25 18:12:31.583,0.754749,0.803276,5.935437,0.013572,0.010050,0.978220,0.165713,0.016455,9.790946,-0.002193,-0.001776,-0.001634,0.818390,0.473254,-1.211347,100331.0000
1764074551687383086,2025-11-25 18:12:31.683,0.759888,0.811253,5.938039,0.014347,0.010848,0.978789,0.115110,0.177311,9.772157,0.002085,-0.004739,0.001935,0.821271,0.472779,-1.211864,100336.0000
1764074551786738141,2025-11-25 18:12:31.783,0.755010,0.814636,5.943490,0.014642,0.010497,0.979492,0.169295,0.062678,9.811449,-0.000851,0.000232,-0.003903,0.818392,0.473732,-1.211354,100336.0000
1764074551887394864,2025-11-25 18:12:31.883,0.751720,0.812347,5.943661,0.014856,0.009964,0.979412,0.131046,0.126017,9.748917,0.003004,0.003689,0.002970,0.821268,0.471356,-1.211360,100336.0000
1764074551987137141,2025-11-25 18:12:31.983,0.751025,0.805061,5.945180,0.014897,0.009491,0.979277,0.163815,0.107988,9.807786,0.002757,0.001488,-0.003769,0.821261,0.472281,-1.212819,100332.0000
1764074552085385234,2025-11-25 18:12:32.082,0.753344,0.796531,5.949475,0.014730,0.009080,0.978654,0.132090,0.074989,9.774271,0.001635,0.001597,0.002356,0.819356,0.474681,-1.211865,100339.0000
1764074552185782808,2025-11-25 18:12:32.183,0.766096,0.785107,5.952129,0.013754,0.009975,0.978241,0.132012,0.149944,9.800520,0.001619,0.001378,-0.001519,0.817925,0.475650,-1.210895,100336.0000
1764074552285930197,2025-11-25 18:12:32.283,0.774187,0.776734,5.958520,0.013201,0.009954,0.977849,0.149685,0.048270,9.756684,0.002919,0.003865,0.001738,0.820780,0.472279,-1.212812,100338.0000
1764074552386573789,2025-11-25 18:12:32.383,0.779950,0.772648,5.964588,0.013053,0.011062,0.977918,0.119657,0.175276,9.785296,0.006717,0.003517,-0.003098,0.819350,0.472781,-1.211354,100330.0000
1764074552486725382,2025-11-25 18:12:32.483,0.778519,0.774125,5.970207,0.013504,0.010484,0.978346,0.166785,0.012051,9.789655,0.000450,-0.002552,-0.000837,0.818397,0.472329,-1.209888,100333.0000
1764074552590658104,2025-11-25 18:12:32.583,0.775403,0.776001,5.976240,0.013606,0.010349,0.979084,0.107061,0.213688,9.783924,0.001871,-0.003720,0.001382,0.820789,0.474190,-1.212841,100334.0000
1764074552688735659,2025-11-25 18:12:32.683,0.773670,0.783518,5.979259,0.013758,0.009344,0.979371,0.190096,-0.005023,9.810074,-0.002900,-0.000999,-0.000535,0.817899,0.472754,-1.212295,100330.0000
1764074552786469067,2025-11-25 18:12:32.783,0.777041,0.785644,5.977596,0.013709,0.009763,0.979372,0.111648,0.172756,9.772408,0.001827,0.004214,0.001971,0.819855,0.475202,-1.209954,100336.0000
1764074552886480733,2025-11-25 18:12:32.883,0.784485,0.792450,5.982217,0.014453,0.009408,0.979271,0.178385,0.025588,9.811029,0.000507,-0.002862,0.001003,0.818864,0.471823,-1.211332,100334.0000
1764074552986418826,2025-11-25 18:12:32.983,0.794757,0.794403,5.987041,0.014553,0.010047,0.978733,0.126314,0.165427,9.770061,0.002125,0.000531,0.004961,0.817408,0.470841,-1.212259,100334.0000
1764074553085540844,2025-11-25 18:12:33.082,0.797992,0.789830,5.990768,0.015045,0.010828,0.978504,0.176635,0.084479,9.801120,0.005078,-0.001215,-0.003112,0.823198,0.475623,-1.213380,100332.0000
1764074553186732048,2025-11-25 18:12:33.183,0.795797,0.775214,5.999322,0.015075,0.010695,0.978126,0.133760,0.115780,9.753929,-0.004335,0.006156,0.002603,0.820317,0.473741,-1.211383,100332.0000
1764074553287898789,2025-11-25 18:12:33.283,0.786919,0.752133,6.006096,0.014226,0.010595,0.978365,0.144134,0.122197,9.799113,0.002658,0.003096,-0.003500,0.820791,0.472310,-1.211368,100334.0000
1764074553386812122,2025-11-25 18:12:33.383,0.781082,0.734188,6.009903,0.013221,0.009442,0.978938,0.129386,0.032255,9.770713,0.001557,-0.002435,0.003747,0.819831,0.472783,-1.211361,100335.0000
1764074553486447807,2025-11-25 18:12:33.483,0.783028,0.724878,6.012019,0.012223,0.009393,0.978728,0.125959,0.148915,9.788718,0.001929,-0.005982,-0.001526,0.821766,0.473290,-1.210434,100336.0000
1764074553587062344,2025-11-25 18:12:33.583,0.787802,0.733600,6.011788,0.012561,0.008812,0.978743,0.150704,0.023388,9.772650,0.004762,-0.005707,0.007063,0.821766,0.475647,-1.211915,100332.0000
1764074553687570733,2025-11-25 18:12:33.683,0.796297,0.753090,6.015882,0.013081,0.010206,0.978318,0.132492,0.207273,9.783546,-0.001542,-0.003393,-0.001548,0.819339,0.472750,-1.212798,100334.0000
1764074553786811937,2025-11-25 18:12:33.783,0.805916,0.775319,6.024343,0.014421,0.010601,0.978393,0.178331,0.018559,9.813331,0.006239,-0.004831,0.004098,0.820775,0.473681,-1.214278,100340.0000
1764074553886651251,2025-11-25 18:12:33.883,0.810387,0.781409,6.031969,0.015428,0.010982,0.978741,0.141117,0.183882,9.775007,-0.002229,0.001886,0.000762,0.822703,0.472755,-1.213329,100334.0000
1764074553986241159,2025-11-25 18:12:33.983,0.806056,0.771043,6.036523,0.015712,0.010676,0.979119,0.168002,0.036546,9.812133,0.001708,0.006238,-0.000836,0.819838,0.473271,-1.210887,100323.0000
1764074554085472455,2025-11-25 18:12:34.083,0.797375,0.748689,6.039653,0.014466,0.010166,0.979063,0.117038,0.150677,9.762178,0.000958,0.004481,0.002638,0.818396,0.475155,-1.211858,100335.0000
1764074554186420084,2025-11-25 18:12:34.183,0.796310,0.723644,6.046308,0.013411,0.009430,0.979097,0.144516,0.080126,9.818851,-0.001182,0.003447,-0.006190,0.819347,0.471358,-1.210850,100336.0000
1764074554286773158,2025-11-25 18:12:34.283,0.796917,0.709579,6.053591,0.013273,0.009230,0.978622,0.128553,0.087421,9.760234,0.003734,0.004795,0.006629,0.820802,0.472807,-1.210413,100328.0000
1764074554386947103,2025-11-25 18:12:34.383,0.805874,0.710556,6.061505,0.012969,0.009855,0.978567,0.141693,0.152144,9.796272,0.000373,-0.004948,-0.003705,0.820331,0.473303,-1.209450,100338.0000
1764074554486309473,2025-11-25 18:12:34.483,0.812187,0.713696,6.071104,0.013504,0.010138,0.977867,0.153931,0.028520,9.770864,0.005784,0.001953,0.002715,0.816941,0.473705,-1.212296,100332.0000
1764074554588869066,2025-11-25 18:12:34.583,0.818693,0.722178,6.079823,0.013832,0.010925,0.977987,0.132589,0.189919,9.781768,-0.004274,0.000643,-0.002637,0.820790,0.473722,-1.212353,100328.0000
1764074554686733029,2025-11-25 18:12:34.683,0.815074,0.727284,6.083561,0.013951,0.010730,0.978174,0.150592,0.022496,9.778397,-0.000705,0.001025,-0.000422,0.820332,0.475194,-1.210442,100342.0000
1764074554786669454,2025-11-25 18:12:34.783,0.803519,0.727303,6.093175,0.013848,0.010477,0.978774,0.105480,0.204883,9.774720,-0.000529,-0.003241,0.000035,0.819369,0.476602,-1.211412,100330.0000
1764074554887480343,2025-11-25 18:12:34.883,0.802948,0.727749,6.100388,0.013896,0.009155,0.979163,0.152757,-0.004580,9.809924,0.000570,0.001065,-0.003190,0.819849,0.474714,-1.210428,100334.0000
1764074554986710769,2025-11-25 18:12:34.983,0.804883,0.728246,6.109169,0.013960,0.009204,0.979469,0.104165,0.158556,9.767230,0.000926,0.000809,0.001857,0.819849,0.475659,-1.210924,100338.0000
1764074555085437954,2025-11-25 18:12:35.083,0.817140,0.734254,6.119884,0.014438,0.009548,0.979165,0.142407,0.056492,9.806035,0.000356,-0.001278,-0.005926,0.819832,0.473728,-1.211857,100332.0000
1764074555186330788,2025-11-25 18:12:35.183,0.827784,0.736689,6.129489,0.014610,0.010470,0.978868,0.131595,0.124422,9.756396,0.001221,-0.000233,0.001036,0.816948,0.474193,-1.211822,100332.0000
1764074555289227362,2025-11-25 18:12:35.284,0.833184,0.726399,6.145287,0.014629,0.011011,0.978244,0.162306,0.126453,9.802639,-0.001493,0.001449,-0.006660,0.819336,0.473685,-1.213776,100336.0000
1764074555386748047,2025-11-25 18:12:35.383,0.833789,0.708931,6.152517,0.014493,0.010312,0.977776,0.128573,0.064868,9.759206,0.004116,0.004032,0.001182,0.820802,0.475165,-1.211893,100336.0000
1764074555486592528,2025-11-25 18:12:35.483,0.832964,0.695225,6.165688,0.013829,0.010366,0.978002,0.126879,0.146001,9.779758,0.000254,-0.001534,-0.002682,0.818877,0.475157,-1.211865,100331.0000
1764074555586683084,2025-11-25 18:12:35.583,0.835128,0.687651,6.178172,0.013147,0.009466,0.978446,0.161836,0.020985,9.771741,0.002044,-0.004563,0.004539,0.821279,0.472799,-1.210901,100332.0000
1764074555686477139,2025-11-25 18:12:35.683,0.834572,0.694821,6.191205,0.012567,0.010223,0.978877,0.114886,0.206627,9.795648,0.000478,-0.004460,0.000004,0.819832,0.473728,-1.211857,100334.0000
1764074555786426658,2025-11-25 18:12:35.783,0.836189,0.707612,6.202461,0.012999,0.009784,0.979024,0.163885,0.010352,9.793293,0.004213,-0.001407,-0.003700,0.817929,0.474248,-1.209429,100333.0000
1764074555886703602,2025-11-25 18:12:35.883,0.835665,0.728174,6.215041,0.013739,0.010550,0.979320,0.115229,0.193275,9.791525,0.001951,-0.005279,0.001573,0.817902,0.474177,-1.212799,100334.0000
1764074555986526361,2025-11-25 18:12:35.983,0.831738,0.738654,6.231020,0.014993,0.010578,0.979186,0.165386,0.040800,9.806478,-0.001952,-0.000163,-0.007023,0.817442,0.476116,-1.211376,100336.0000
1764074556085468806,2025-11-25 18:12:36.082,0.835458,0.741591,6.243876,0.015496,0.009557,0.978644,0.132277,0.142185,9.754449,0.001120,0.002352,0.001865,0.816968,0.475189,-1.209911,100330.0000
1764074556186538250,2025-11-25 18:12:36.183,0.839542,0.727804,6.257375,0.015656,0.009372,0.978433,0.173473,0.073495,9.811952,0.001063,-0.000094,-0.006458,0.817915,0.475152,-1.211851,100332.0000
1764074556286401565,2025-11-25 18:12:36.283,0.853033,0.702799,6.267739,0.015035,0.009106,0.978532,0.118842,0.094549,9.751368,-0.001025,0.007117,-0.000630,0.816473,0.477036,-1.212821,100336.0000
1764074556386567768,2025-11-25 18:12:36.383,0.867755,0.671889,6.280173,0.013801,0.009463,0.978578,0.126690,0.122824,9.808464,0.001986,0.003444,-0.006301,0.819846,0.474236,-1.210420,100332.0000
1764074556486713639,2025-11-25 18:12:36.483,0.880059,0.654949,6.290546,0.012803,0.010343,0.978440,0.111761,0.058680,9.751607,0.005603,0.001238,-0.000392,0.816491,0.477555,-1.210903,100338.0000
1764074556586527102,2025-11-25 18:12:36.583,0.885988,0.654472,6.305460,0.012199,0.011568,0.978443,0.112219,0.196001,9.785010,0.001122,-0.001374,-0.003928,0.816501,0.474282,-1.207482,100338.0000
1764074556686169009,2025-11-25 18:12:36.683,0.877196,0.669202,6.323524,0.012805,0.011160,0.978181,0.145054,0.025889,9.780365,-0.001475,-0.001854,0.001240,0.818877,0.475157,-1.211865,100339.0000
1764074556786807935,2025-11-25 18:12:36.783,0.865554,0.686498,6.340933,0.013726,0.011280,0.978223,0.128968,0.194744,9.780511,-0.001676,-0.007065,-0.000577,0.815532,0.476616,-1.209911,100337.0000
1764074556886913749,2025-11-25 18:12:36.883,0.850496,0.704012,6.356724,0.014252,0.009660,0.978474,0.178623,0.008091,9.801930,-0.000500,-0.004593,-0.000534,0.816464,0.476071,-1.213288,100336.0000
1764074556986390157,2025-11-25 18:12:36.983,0.843575,0.718426,6.371623,0.014808,0.009019,0.979172,0.114266,0.175773,9.773218,-0.002422,-0.002600,-0.001316,0.816493,0.477087,-1.210414,100328.0000
1764074557085506675,2025-11-25 18:12:37.083,0.845447,0.719946,6.385424,0.015063,0.008652,0.979673,0.159961,0.037787,9.808737,0.008066,-0.002815,-0.003650,0.816462,0.477006,-1.214265,100340.0000
1764074557186918768,2025-11-25 18:12:37.183,0.850975,0.711342,6.399251,0.014870,0.009291,0.979130,0.131422,0.138237,9.774079,0.001744,0.001654,0.000198,0.815992,0.477034,-1.212814,100335.0000
1764074557286946471,2025-11-25 18:12:37.283,0.864696,0.696423,6.415050,0.014834,0.009622,0.979077,0.168161,0.093290,9.811869,0.006016,0.002630,-0.005591,0.816952,0.476561,-1.212821,100332.0000
1764074557388768564,2025-11-25 18:12:37.383,0.881995,0.675168,6.431691,0.014509,0.010021,0.978372,0.138492,0.111741,9.761059,-0.000391,0.005675,-0.001801,0.818919,0.479039,-1.209035,100329.0000
1764074557486766823,2025-11-25 18:12:37.483,0.894589,0.651622,6.443194,0.013476,0.010979,0.978188,0.133498,0.141213,9.814627,0.001550,0.002135,-0.005606,0.817441,0.476583,-1.211865,100332.0000
1764074557586097379,2025-11-25 18:12:37.583,0.904928,0.637945,6.457465,0.012444,0.010586,0.978232,0.117730,0.034684,9.767422,-0.002100,0.006666,0.000513,0.814572,0.477089,-1.209904,100340.0000
1764074557687391434,2025-11-25 18:12:37.683,0.902172,0.635865,6.475795,0.012242,0.011304,0.978219,0.127436,0.190695,9.798496,-0.000574,-0.003333,-0.004665,0.816028,0.478071,-1.208978,100342.0000
1764074557786429879,2025-11-25 18:12:37.783,0.898955,0.641991,6.490916,0.012690,0.010089,0.978628,0.144273,0.004248,9.777050,0.006396,-0.003642,0.000076,0.816023,0.478528,-1.209948,100342.0000
1764074557886677693,2025-11-25 18:12:37.883,0.891194,0.662322,6.505686,0.012826,0.010172,0.978672,0.129466,0.181533,9.778510,-0.004410,-0.004791,-0.001315,0.815995,0.477512,-1.212821,100323.0000
1764074557986847545,2025-11-25 18:12:37.983,0.888561,0.684803,6.520022,0.014083,0.009519,0.978923,0.179910,0.012301,9.802973,0.000828,-0.005685,-0.002467,0.819381,0.478045,-1.210953,100338.0000
1764074558085854212,2025-11-25 18:12:38.083,0.885657,0.696873,6.535980,0.014689,0.010043,0.978668,0.117740,0.177017,9.767855,-0.001595,-0.003574,-0.000699,0.815531,0.478028,-1.210896,100334.0000
1764074558186787101,2025-11-25 18:12:38.183,0.886280,0.694212,6.554214,0.015511,0.009315,0.978643,0.179990,0.031638,9.793546,0.003488,0.001005,-0.006157,0.816020,0.480409,-1.211421,100340.0000
1764074558287171730,2025-11-25 18:12:38.283,0.890476,0.678220,6.573850,0.015570,0.009704,0.978370,0.121043,0.132091,9.770125,0.003207,0.004430,0.001981,0.816009,0.478965,-1.211881,100336.0000
1764074558388964637,2025-11-25 18:12:38.383,0.895241,0.654915,6.590779,0.014785,0.009911,0.978755,0.164141,0.088361,9.818584,0.002307,-0.000546,-0.007374,0.815523,0.479421,-1.212843,100336.0000
1764074558486888212,2025-11-25 18:12:38.483,0.899854,0.629999,6.605039,0.013465,0.010436,0.979262,0.118169,0.091144,9.777372,0.000672,0.004996,0.002737,0.814567,0.478491,-1.211371,100339.0000
1764074558587731823,2025-11-25 18:12:38.583,0.901919,0.615619,6.618072,0.012707,0.010559,0.978905,0.135007,0.144502,9.794538,0.000743,0.002500,-0.004908,0.816032,0.480439,-1.209977,100333.0000
1764074558686445267,2025-11-25 18:12:38.683,0.901794,0.614155,6.632212,0.012590,0.009796,0.978574,0.149843,0.046421,9.773067,0.003048,-0.002763,0.000961,0.815560,0.482348,-1.209999,100336.0000
1764074558786389804,2025-11-25 18:12:38.783,0.903442,0.622735,6.649636,0.013006,0.010016,0.978191,0.121684,0.187285,9.774024,-0.003603,-0.002929,-0.005797,0.816485,0.477067,-1.211377,100332.0000
1764074558886531119,2025-11-25 18:12:38.883,0.911049,0.637751,6.666179,0.013938,0.009424,0.978045,0.169088,0.003603,9.775140,0.004436,-0.003203,-0.005522,0.816486,0.478957,-1.212369,100336.0000
1764074558986322711,2025-11-25 18:12:38.983,0.918610,0.654416,6.682847,0.014445,0.010192,0.978015,0.139213,0.193731,9.781336,0.005785,-0.002096,-0.004532,0.814578,0.479934,-1.210912,100334.0000
1764074559085520970,2025-11-25 18:12:39.083,0.924575,0.659915,6.703351,0.015011,0.010175,0.978914,0.168405,-0.005193,9.793651,-0.000803,0.000899,-0.002924,0.814586,0.481367,-1.210933,100333.0000
1764074559186928767,2025-11-25 18:12:39.183,0.922228,0.652637,6.713648,0.014954,0.011090,0.979333,0.129184,0.186061,9.777609,0.002203,-0.000961,-0.002406,0.815046,0.481786,-1.213836,100335.0000
1764074559286533711,2025-11-25 18:12:39.283,0.914948,0.642356,6.727556,0.014185,0.010770,0.979622,0.158447,0.030356,9.815166,-0.001105,0.005597,-0.007002,0.816028,0.480429,-1.210459,100334.0000
1764074559386249637,2025-11-25 18:12:39.383,0.905664,0.632307,6.741824,0.013616,0.010074,0.979294,0.119548,0.136751,9.761559,-0.002218,0.001330,0.002214,0.813126,0.478963,-1.211356,100336.0000
1764074559486816415,2025-11-25 18:12:39.483,0.901735,0.629163,6.762352,0.013349,0.009628,0.978331,0.147136,0.057048,9.801054,0.004847,-0.002912,-0.006345,0.814607,0.485667,-1.210999,100334.0000
1764074559586931581,2025-11-25 18:12:39.583,0.902084,0.629686,6.784919,0.013165,0.008988,0.977867,0.108752,0.111853,9.750944,0.000869,-0.000477,-0.003025,0.812641,0.480363,-1.212816,100332.0000
1764074559687112285,2025-11-25 18:12:39.683,0.913621,0.636059,6.807426,0.013538,0.009526,0.977848,0.137988,0.114026,9.807694,0.003877,-0.003107,-0.006200,0.813603,0.480367,-1.212830,100333.0000
1764074559786691266,2025-11-25 18:12:39.783,0.924531,0.640579,6.824462,0.013864,0.009618,0.978235,0.144211,0.054038,9.752397,0.004241,0.001077,-0.001342,0.815070,0.482793,-1.211444,100339.0000
1764074559886786229,2025-11-25 18:12:39.883,0.933161,0.647093,6.841512,0.014109,0.011090,0.978727,0.146053,0.185385,9.802052,0.000078,-0.002694,-0.004323,0.816013,0.480388,-1.212384,100334.0000
1764074559986557674,2025-11-25 18:12:39.983,0.935736,0.645817,6.855379,0.014156,0.010857,0.979266,0.138884,0.030388,9.790419,0.001426,-0.001428,0.000828,0.815057,0.481817,-1.212392,100337.0000
1764074560085379359,2025-11-25 18:12:40.082,0.931012,0.643714,6.873075,0.014291,0.011215,0.979362,0.126070,0.211028,9.802797,-0.005411,-0.001660,-0.004147,0.815080,0.483291,-1.210489,100333.0000
1764074560186784192,2025-11-25 18:12:40.183,0.928298,0.638123,6.892153,0.014262,0.009599,0.979386,0.166095,-0.008172,9.798038,0.002553,0.000248,-0.003610,0.813611,0.482745,-1.213348,100337.0000
1764074560286506970,2025-11-25 18:12:40.283,0.922509,0.629248,6.911106,0.014293,0.009501,0.978666,0.107634,0.197945,9.785995,-0.000384,-0.001149,-0.001041,0.812653,0.485109,-1.214333,100336.0000
1764074560385904099,2025-11-25 18:12:40.382,0.927536,0.619396,6.926933,0.013931,0.009421,0.978241,0.165129,0.025731,9.793409,0.001013,0.001324,-0.003611,0.814097,0.481345,-1.211889,100336.0000
1764074560488903284,2025-11-25 18:12:40.483,0.939086,0.614533,6.941594,0.013247,0.010242,0.978089,0.126977,0.179837,9.763209,0.003523,-0.002363,0.002537,0.814095,0.483225,-1.213362,100325.0000
1764074560587568618,2025-11-25 18:12:40.583,0.940490,0.617569,6.959285,0.012902,0.011032,0.978330,0.165118,0.068785,9.807465,-0.003575,-0.001054,-0.007409,0.815073,0.484215,-1.211947,100337.0000
1764074560687310321,2025-11-25 18:12:40.683,0.934777,0.628507,6.971107,0.013014,0.010984,0.978590,0.108207,0.105903,9.758556,0.001396,-0.001526,0.002798,0.815076,0.483280,-1.210970,100334.0000
1764074560786699062,2025-11-25 18:12:40.783,0.922603,0.642359,6.992043,0.013954,0.010538,0.978562,0.158272,0.113880,9.801365,-0.000335,-0.005958,-0.004361,0.814618,0.484752,-1.209059,100336.0000
1764074560886607803,2025-11-25 18:12:40.883,0.911429,0.657687,7.016973,0.014290,0.009439,0.978497,0.139769,0.054151,9.760580,-0.000618,-0.003565,-0.001400,0.811226,0.484676,-1.211897,100336.0000
1764074560986606303,2025-11-25 18:12:40.983,0.909063,0.659923,7.036219,0.014891,0.009442,0.978462,0.129278,0.167341,9.795566,0.002233,0.001639,-0.005235,0.814604,0.484244,-1.210496,100338.0000
1764074561085615228,2025-11-25 18:12:41.083,0.910397,0.649630,7.053504,0.015307,0.008878,0.978723,0.152189,0.008261,9.774612,0.001421,0.001541,-0.000155,0.811698,0.485125,-1.213356,100336.0000
1764074561187682599,2025-11-25 18:12:41.183,0.918795,0.632337,7.068770,0.014734,0.009939,0.979194,0.113253,0.195219,9.798485,0.002973,0.008153,-0.006344,0.814118,0.483286,-1.210474,100331.0000
1764074561286710839,2025-11-25 18:12:41.283,0.930376,0.614718,7.082511,0.013570,0.010081,0.979069,0.158088,0.008700,9.794773,0.004360,0.001481,-0.003211,0.814114,0.485634,-1.212436,100336.0000
1764074561386636025,2025-11-25 18:12:41.383,0.936024,0.602671,7.099359,0.012617,0.010708,0.978495,0.096816,0.193653,9.765367,0.002383,-0.000735,-0.001257,0.813664,0.487126,-1.209563,100338.0000
1764074561486442895,2025-11-25 18:12:41.483,0.939970,0.604168,7.116185,0.013055,0.010717,0.978717,0.156373,0.060929,9.800075,-0.004161,-0.001286,-0.007787,0.812204,0.487079,-1.211467,100332.0000
1764074561586709191,2025-11-25 18:12:41.583,0.935597,0.612291,7.135172,0.013567,0.010553,0.978313,0.102584,0.142713,9.749952,0.000912,-0.003528,0.001197,0.812680,0.485180,-1.210963,100332.0000
1764074561686797617,2025-11-25 18:12:41.683,0.933389,0.618143,7.152186,0.014307,0.010197,0.978843,0.159125,0.095279,9.810212,0.002258,-0.003959,-0.006566,0.813645,0.485662,-1.210985,100336.0000
1764074561786802469,2025-11-25 18:12:41.783,0.925392,0.621351,7.169780,0.014576,0.009748,0.978633,0.118246,0.060441,9.756967,-0.003049,-0.000425,-0.001479,0.811730,0.487564,-1.210986,100335.0000
1764074561886605580,2025-11-25 18:12:41.883,0.924348,0.621130,7.186973,0.014045,0.010063,0.979130,0.135057,0.146538,9.811847,-0.002166,-0.001807,-0.007404,0.810755,0.486584,-1.211920,100331.0000
1764074561986603580,2025-11-25 18:12:41.983,0.925951,0.617874,7.202659,0.014220,0.009237,0.978672,0.155133,0.016885,9.774360,0.004239,0.003066,0.001794,0.810769,0.487093,-1.210483,100334.0000
1764074562085477432,2025-11-25 18:12:42.082,0.929492,0.617009,7.222623,0.013505,0.010052,0.978605,0.133024,0.179005,9.785455,-0.002821,-0.003001,-0.002874,0.811237,0.486119,-1.211438,100337.0000
1764074562186375728,2025-11-25 18:12:42.183,0.933783,0.618905,7.243389,0.013073,0.010094,0.978452,0.148751,0.016745,9.792224,0.000432,0.000450,-0.005813,0.809811,0.485686,-1.209002,100338.0000
1764074562287076876,2025-11-25 18:12:42.283,0.928695,0.626523,7.266787,0.013033,0.010701,0.978374,0.110132,0.200692,9.782976,0.001947,-0.001528,-0.002003,0.811737,0.488997,-1.211008,100332.0000
1764074562386714172,2025-11-25 18:12:42.383,0.927102,0.641664,7.286250,0.013809,0.009659,0.978467,0.166375,0.010388,9.797778,-0.002893,-0.007275,-0.005998,0.815589,0.486667,-1.209102,100340.0000
1764074562486482450,2025-11-25 18:12:42.483,0.926078,0.649248,7.299952,0.014953,0.009526,0.978365,0.121285,0.145861,9.764813,0.001218,0.001036,-0.000301,0.808831,0.487521,-1.212387,100331.0000
1764074562586257116,2025-11-25 18:12:42.583,0.925987,0.642312,7.312200,0.016013,0.009282,0.978908,0.186154,0.054234,9.806542,0.005197,0.000774,-0.003262,0.810768,0.486148,-1.209987,100334.0000
1764074562689233524,2025-11-25 18:12:42.683,0.937446,0.623683,7.325469,0.015581,0.009270,0.979128,0.126589,0.105641,9.775414,0.001610,0.002194,0.001876,0.811262,0.487125,-1.209046,100337.0000
1764074562786479894,2025-11-25 18:12:42.783,0.952060,0.596190,7.345089,0.013834,0.010168,0.979858,0.134098,0.111123,9.814292,0.004149,0.003009,-0.005997,0.810263,0.486084,-1.212868,100335.0000
1764074562886652357,2025-11-25 18:12:42.883,0.965282,0.576757,7.364182,0.012822,0.010601,0.979304,0.113800,0.089721,9.780160,0.001004,0.000978,0.000932,0.812682,0.485658,-1.210971,100336.0000
1764074562986546635,2025-11-25 18:12:42.983,0.961398,0.577458,7.384188,0.012063,0.011876,0.978532,0.101853,0.173779,9.797750,-0.001111,-0.000319,-0.004865,0.812697,0.488524,-1.211015,100336.0000
1764074563085630375,2025-11-25 18:12:43.082,0.951491,0.591940,7.398271,0.012592,0.011099,0.977793,0.154066,0.033887,9.769888,0.002935,-0.005399,0.003268,0.810767,0.488973,-1.211956,100332.0000
1764074563186487246,2025-11-25 18:12:43.183,0.938542,0.609175,7.410402,0.013715,0.010626,0.977552,0.129498,0.186252,9.797134,-0.005256,-0.007520,-0.003374,0.811730,0.486152,-1.210001,100334.0000
1764074563286442338,2025-11-25 18:12:43.283,0.926833,0.617271,7.425669,0.014602,0.009016,0.977803,0.177415,0.010792,9.780088,0.003714,-0.001183,-0.002740,0.811734,0.488520,-1.211000,100335.0000
1764074563386400394,2025-11-25 18:12:43.383,0.922302,0.618611,7.441452,0.014375,0.008842,0.978441,0.117055,0.171403,9.769642,0.002018,-0.001114,-0.000495,0.810299,0.488534,-1.210016,100335.0000
1764074563486694560,2025-11-25 18:12:43.483,0.929229,0.617401,7.462943,0.013997,0.008869,0.979086,0.169024,0.004198,9.807058,0.003600,-0.001740,-0.005543,0.811733,0.486630,-1.210008,100340.0000
1764074563586630171,2025-11-25 18:12:43.583,0.944559,0.618535,7.488208,0.013563,0.010186,0.979333,0.108585,0.187213,9.770791,0.001684,-0.002000,0.000153,0.812220,0.488532,-1.210526,100335.0000
1764074563689377357,2025-11-25 18:12:43.683,0.952884,0.622282,7.510073,0.013897,0.010935,0.979511,0.177938,0.082289,9.811675,0.003056,0.001597,-0.007452,0.811238,0.487064,-1.211934,100340.0000
1764074563786493042,2025-11-25 18:12:43.783,0.953330,0.624028,7.525129,0.014408,0.010895,0.978995,0.128142,0.125828,9.762937,0.003250,0.000747,0.003471,0.809331,0.488987,-1.210972,100332.0000
1764074563886371431,2025-11-25 18:12:43.883,0.947273,0.623666,7.536648,0.014537,0.010435,0.978688,0.147344,0.086143,9.797815,0.002299,0.000692,-0.003369,0.810282,0.487548,-1.211446,100345.0000
1764074563986713301,2025-11-25 18:12:43.983,0.943036,0.610781,7.550436,0.014852,0.009324,0.978276,0.142890,0.083430,9.764147,0.002302,0.002939,0.002624,0.810757,0.487062,-1.211927,100330.0000
1764074564085738116,2025-11-25 18:12:44.083,0.941629,0.594005,7.567060,0.014622,0.009714,0.978493,0.133433,0.149504,9.814871,-0.000007,0.003786,-0.003912,0.808368,0.488037,-1.210462,100335.0000
1764074564186751560,2025-11-25 18:12:44.183,0.946197,0.581934,7.588170,0.013639,0.009198,0.978703,0.142711,0.037025,9.784636,-0.001097,0.002703,-0.000251,0.806945,0.489972,-1.209026,100330.0000
1764074564286673912,2025-11-25 18:12:44.283,0.949842,0.577507,7.608470,0.012608,0.010125,0.978788,0.118816,0.169880,9.793582,0.003756,-0.003128,-0.002835,0.809805,0.487556,-1.210957,100331.0000
1764074564386879967,2025-11-25 18:12:44.383,0.953514,0.584746,7.627191,0.012330,0.010513,0.978800,0.122521,0.047603,9.771278,-0.002495,-0.003565,-0.002535,0.810305,0.489022,-1.209542,100330.0000
1764074564486728856,2025-11-25 18:12:44.483,0.950036,0.599148,7.644619,0.013332,0.011052,0.978741,0.124595,0.206113,9.784529,-0.003202,-0.003257,0.000384,0.811731,0.490867,-1.212963,100337.0000
1764074564586602763,2025-11-25 18:12:44.583,0.943951,0.621731,7.655847,0.013826,0.010197,0.978480,0.170897,0.008014,9.783737,0.002451,-0.002240,0.000244,0.808837,0.489421,-1.212898,100342.0000
1764074564686958819,2025-11-25 18:12:44.683,0.936774,0.634461,7.674450,0.014441,0.010372,0.978162,0.122973,0.171428,9.778363,-0.003982,-0.001460,0.000548,0.808851,0.489930,-1.211461,100331.0000
1764074564788074800,2025-11-25 18:12:44.783,0.932981,0.637113,7.696539,0.015111,0.009578,0.978990,0.189293,0.017939,9.802979,0.000182,-0.002334,-0.006366,0.812225,0.490433,-1.211037,100331.0000
1764074564886332745,2025-11-25 18:12:44.883,0.934786,0.631404,7.717344,0.014438,0.009551,0.978685,0.117224,0.162563,9.773232,-0.000341,0.002258,0.000980,0.806943,0.491852,-1.210499,100336.0000
1764074564986476763,2025-11-25 18:12:44.983,0.940763,0.619491,7.737607,0.014016,0.009381,0.979178,0.158901,0.037579,9.820781,0.002660,-0.000023,-0.008240,0.808858,0.491363,-1.211483,100344.0000
1764074565085731837,2025-11-25 18:12:45.083,0.950355,0.609691,7.752378,0.013592,0.009600,0.978723,0.115775,0.139493,9.756160,0.006259,0.001327,0.001995,0.808846,0.491332,-1.212927,100336.0000
1764074565186821319,2025-11-25 18:12:45.183,0.954373,0.604012,7.768280,0.013840,0.010087,0.978975,0.170869,0.079804,9.786648,0.000396,-0.000533,-0.006349,0.809807,0.491804,-1.213430,100337.0000
1764074565286498226,2025-11-25 18:12:45.283,0.961487,0.599966,7.777519,0.013805,0.010001,0.978768,0.111768,0.089916,9.768845,0.001193,-0.001234,0.004388,0.812230,0.491388,-1.211051,100332.0000
1764074565386877837,2025-11-25 18:12:45.383,0.963990,0.597477,7.790708,0.013781,0.010467,0.978398,0.153379,0.131680,9.807775,0.000206,0.002193,-0.004264,0.805960,0.489906,-1.211900,100333.0000
1764074565486690689,2025-11-25 18:12:45.483,0.962517,0.596149,7.806756,0.013645,0.010265,0.978454,0.137811,0.058052,9.774117,-0.000317,-0.006113,0.003553,0.808840,0.489432,-1.212416,100332.0000
1764074565586808337,2025-11-25 18:12:45.583,0.956187,0.599470,7.825772,0.013459,0.010421,0.978529,0.118545,0.172185,9.791736,-0.000533,-0.000573,-0.002395,0.809333,0.493235,-1.213445,100330.0000
1764074565688273911,2025-11-25 18:12:45.683,0.948129,0.605379,7.846375,0.013473,0.010053,0.978790,0.133212,0.023885,9.781091,-0.005219,-0.003257,0.001981,0.807413,0.491824,-1.211951,100338.0000
1764074565790290929,2025-11-25 18:12:45.783,0.944254,0.610088,7.866959,0.013714,0.009890,0.978583,0.118436,0.155775,9.787377,-0.001985,-0.003368,-0.003915,0.809838,0.493298,-1.210564,100335.0000
1764074565886899929,2025-11-25 18:12:45.883,0.942961,0.612193,7.881098,0.014096,0.008851,0.978732,0.179354,-0.024376,9.792193,0.004327,0.003814,-0.002055,0.810307,0.493270,-1.212015,100341.0000
1764074565986385874,2025-11-25 18:12:45.983,0.945937,0.615786,7.894824,0.013603,0.009573,0.978773,0.105001,0.196205,9.783527,0.001257,-0.001363,-0.000905,0.809334,0.491822,-1.212460,100337.0000
1764074566085401985,2025-11-25 18:12:46.082,0.958297,0.618468,7.909624,0.014063,0.009824,0.978955,0.165315,0.031529,9.795838,0.000563,-0.000756,-0.004549,0.805973,0.489470,-1.209967,100332.0000
1764074566187208244,2025-11-25 18:12:46.183,0.961856,0.622021,7.922873,0.014037,0.011056,0.979029,0.126313,0.182919,9.782544,0.001276,-0.004045,-0.000268,0.809844,0.493786,-1.210090,100335.0000
1764074566286955670,2025-11-25 18:12:46.283,0.960951,0.623488,7.942161,0.014587,0.011017,0.978777,0.174716,0.051498,9.804545,-0.001314,0.000724,-0.006427,0.807422,0.491376,-1.210499,100335.0000
1764074566386711818,2025-11-25 18:12:46.383,0.949754,0.615142,7.959779,0.014540,0.010372,0.978975,0.107017,0.132717,9.763458,0.003405,0.001658,-0.000291,0.807431,0.492342,-1.210032,100334.0000
1764074566487043651,2025-11-25 18:12:46.483,0.944082,0.601179,7.974891,0.014765,0.009198,0.978909,0.179227,0.081557,9.819780,-0.004957,0.003429,-0.006457,0.809821,0.492312,-1.211993,100339.0000
1764074566587832410,2025-11-25 18:12:46.583,0.950233,0.585201,7.984673,0.013685,0.008520,0.978205,0.126693,0.098785,9.748994,0.002137,0.002296,0.004126,0.807914,0.492822,-1.210047,100337.0000
1764074566687196984,2025-11-25 18:12:46.683,0.958263,0.575662,7.994159,0.013088,0.009599,0.978322,0.121964,0.141110,9.802714,0.002801,-0.001392,-0.003520,0.808872,0.491871,-1.210046,100336.0000
1764074566786875447,2025-11-25 18:12:46.783,0.969446,0.577354,8.006053,0.012604,0.010315,0.978132,0.128084,0.070603,9.774776,0.003071,-0.001401,-0.000805,0.806944,0.492797,-1.210995,100336.0000
1764074566886431929,2025-11-25 18:12:46.883,0.969848,0.592044,8.024406,0.012252,0.011451,0.978409,0.122589,0.155281,9.801927,-0.000143,-0.006409,-0.004807,0.808867,0.493273,-1.211512,100336.0000
1764074566986949743,2025-11-25 18:12:46.983,0.963823,0.613243,8.043151,0.013262,0.010994,0.978746,0.135906,0.044248,9.769140,0.000089,-0.003671,0.000526,0.807417,0.494191,-1.212950,100330.0000
1764074567085438447,2025-11-25 18:12:47.082,0.951068,0.636200,8.063468,0.014128,0.010684,0.978631,0.128220,0.194426,9.786052,0.000036,-0.005515,-0.002578,0.806940,0.492787,-1.211476,100333.0000
1764074567187282762,2025-11-25 18:12:47.183,0.937508,0.648417,8.078780,0.015133,0.009792,0.979271,0.175094,0.011560,9.784709,-0.002780,-0.000444,-0.000667,0.807438,0.493775,-1.210054,100342.0000
1764074567286950817,2025-11-25 18:12:47.283,0.930681,0.647835,8.090702,0.015627,0.009726,0.978797,0.138690,0.175205,9.779656,0.002871,0.003027,-0.000455,0.805027,0.494221,-1.210989,100340.0000
1764074567387539521,2025-11-25 18:12:47.383,0.926941,0.633899,8.104181,0.015761,0.008358,0.978773,0.189171,0.004164,9.800971,-0.000134,0.005820,-0.001410,0.805505,0.495159,-1.211973,100330.0000
1764074567486847836,2025-11-25 18:12:47.483,0.937141,0.604747,8.119632,0.014944,0.008409,0.979339,0.098224,0.174671,9.775656,0.001641,0.006694,-0.000402,0.808872,0.494229,-1.211527,100334.0000
1764074567589029428,2025-11-25 18:12:47.583,0.953404,0.573286,8.133840,0.013628,0.008986,0.979209,0.140825,0.032670,9.801176,0.003572,0.005544,-0.005480,0.807916,0.494712,-1.211039,100336.0000
1764074567686617576,2025-11-25 18:12:47.683,0.976755,0.552389,8.149542,0.012217,0.010540,0.978584,0.100222,0.172853,9.767600,0.004899,0.006058,0.004201,0.806005,0.496625,-1.210558,100336.0000
1764074567786808132,2025-11-25 18:12:47.783,0.990548,0.552516,8.165741,0.011466,0.011484,0.978435,0.144635,0.071434,9.808980,-0.000254,-0.003072,-0.007253,0.808857,0.492775,-1.212468,100338.0000
1764074567887028632,2025-11-25 18:12:47.883,0.990196,0.575215,8.181795,0.011920,0.011860,0.977731,0.084946,0.161054,9.756589,-0.001101,-0.003633,-0.000629,0.806938,0.493722,-1.212454,100335.0000
1764074567986790169,2025-11-25 18:12:47.983,0.974342,0.608383,8.198153,0.013005,0.011570,0.977833,0.155189,0.098550,9.797523,-0.001061,-0.006135,-0.004186,0.807908,0.494692,-1.212002,100338.0000
1764074568085793780,2025-11-25 18:12:48.083,0.950344,0.635648,8.209015,0.014768,0.010534,0.978166,0.149727,0.104518,9.770952,-0.006467,-0.002571,0.002487,0.804537,0.495612,-1.212929,100334.0000
1764074568186182687,2025-11-25 18:12:48.183,0.931204,0.650805,8.223882,0.015562,0.009705,0.979306,0.162374,0.106934,9.820563,-0.002811,-0.003573,-0.002496,0.805022,0.495624,-1.212454,100335.0000
1764074568286654169,2025-11-25 18:12:48.283,0.921377,0.647389,8.239717,0.015794,0.008746,0.979921,0.150468,0.052604,9.760083,-0.000850,0.004590,0.001581,0.805030,0.497057,-1.212477,100342.0000
1764074568387323983,2025-11-25 18:12:48.383,0.919096,0.634198,8.255114,0.014825,0.009289,0.979438,0.133805,0.152119,9.802046,0.004082,-0.000031,-0.005156,0.806957,0.493773,-1.210047,100337.0000
1764074568486909780,2025-11-25 18:12:48.483,0.928409,0.613156,8.267137,0.014097,0.009172,0.979069,0.161505,0.020146,9.781878,0.003050,0.003805,0.000788,0.804574,0.497594,-1.209589,100331.0000
1764074568586762965,2025-11-25 18:12:48.583,0.937756,0.595072,8.284051,0.013308,0.009846,0.978475,0.128353,0.191366,9.771153,0.003498,0.001770,0.001429,0.806005,0.496625,-1.210558,100336.0000
1764074568687317761,2025-11-25 18:12:48.683,0.953810,0.588683,8.294360,0.013256,0.009741,0.977948,0.149523,0.018673,9.773438,0.006088,0.002494,0.000514,0.803123,0.497567,-1.210530,100328.0000
1764074568787337742,2025-11-25 18:12:48.783,0.964294,0.587608,8.307877,0.013234,0.010754,0.978091,0.102325,0.195810,9.774776,0.001946,0.001966,0.001077,0.807444,0.495676,-1.210565,100335.0000
1764074568886624242,2025-11-25 18:12:48.883,0.968389,0.594718,8.319975,0.013343,0.010641,0.978675,0.154918,0.020140,9.791755,0.005198,0.000842,-0.002385,0.804566,0.497573,-1.210552,100337.0000
1764074568986843316,2025-11-25 18:12:48.983,0.962273,0.602220,8.333294,0.013693,0.011103,0.978579,0.119541,0.199233,9.774145,-0.002716,-0.002974,-0.002069,0.805985,0.494216,-1.211484,100342.0000
1764074569085668409,2025-11-25 18:12:49.082,0.950500,0.610577,8.350186,0.014053,0.010261,0.978634,0.174938,0.021931,9.810302,0.001819,-0.003181,-0.003851,0.805992,0.497061,-1.212491,100338.0000
1764074569186200724,2025-11-25 18:12:49.182,0.941207,0.617656,8.365249,0.014377,0.010245,0.978622,0.135872,0.181699,9.760711,-0.003632,-0.003145,-0.000315,0.806976,0.497594,-1.210106,100336.0000
1764074569286999316,2025-11-25 18:12:49.283,0.937861,0.617461,8.378437,0.013967,0.009588,0.979023,0.147026,0.038021,9.822690,0.005151,0.000770,-0.003593,0.806499,0.496190,-1.208632,100342.0000
1764074569387009131,2025-11-25 18:12:49.383,0.936861,0.620577,8.392348,0.014158,0.009458,0.978859,0.124062,0.147112,9.772281,-0.001155,-0.000348,0.001078,0.805510,0.496114,-1.211988,100330.0000
1764074569486582446,2025-11-25 18:12:49.483,0.941428,0.625172,8.405284,0.013906,0.009674,0.979200,0.156176,0.058325,9.811233,0.002744,-0.003401,-0.003277,0.806975,0.496649,-1.209610,100329.0000
1764074569586974946,2025-11-25 18:12:49.583,0.945035,0.627638,8.418595,0.013685,0.010139,0.978635,0.136287,0.128257,9.764611,0.000432,-0.002011,0.004483,0.804064,0.495630,-1.211959,100340.0000
1764074569687803538,2025-11-25 18:12:49.683,0.947257,0.625235,8.435158,0.014118,0.010432,0.978227,0.155546,0.112414,9.800732,0.002739,0.001266,-0.005068,0.805065,0.500452,-1.210121,100334.0000
1764074569786372168,2025-11-25 18:12:49.783,0.942993,0.621994,8.453980,0.014154,0.009938,0.978189,0.111878,0.095496,9.758161,-0.002455,-0.003418,0.001710,0.805513,0.497537,-1.212491,100326.0000
1764074569886470131,2025-11-25 18:12:49.883,0.939180,0.611908,8.465016,0.014079,0.009959,0.978575,0.140643,0.121248,9.812503,-0.000237,0.000818,-0.002928,0.804089,0.497581,-1.210063,100333.0000
1764074569986490668,2025-11-25 18:12:49.983,0.935740,0.604652,8.475679,0.014189,0.009479,0.978656,0.113567,0.056772,9.765965,-0.004361,0.002587,0.002518,0.804559,0.496140,-1.210529,100334.0000
1764074570085434834,2025-11-25 18:12:50.082,0.934382,0.600991,8.489285,0.013665,0.010219,0.978699,0.125190,0.169565,9.798143,0.000760,-0.001193,-0.006042,0.805993,0.496594,-1.212002,100342.0000
1764074570187153464,2025-11-25 18:12:50.183,0.940623,0.601145,8.502317,0.013476,0.009512,0.978872,0.144523,0.039230,9.776428,0.002972,-0.002064,0.003276,0.806480,0.498497,-1.212520,100333.0000
1764074570287323834,2025-11-25 18:12:50.283,0.942470,0.603314,8.518180,0.013266,0.010038,0.978766,0.103065,0.180845,9.810905,0.003132,-0.002759,-0.002522,0.803598,0.498026,-1.211507,100335.0000
1764074570386717464,2025-11-25 18:12:50.383,0.946565,0.606847,8.534893,0.014017,0.009860,0.978625,0.166658,0.015891,9.784458,0.004886,-0.000585,-0.000147,0.806016,0.498068,-1.210099,100335.0000
1764074570486790575,2025-11-25 18:12:50.483,0.947207,0.612468,8.550187,0.013824,0.010509,0.978261,0.108760,0.206684,9.779601,-0.002183,-0.000608,-0.004439,0.805033,0.498480,-1.212980,100339.0000
1764074570586705501,2025-11-25 18:12:50.583,0.939150,0.612881,8.565027,0.014039,0.010703,0.978576,0.161496,0.009762,9.792345,0.002575,-0.003047,0.000162,0.806469,0.497053,-1.212980,100334.0000
1764074570686385149,2025-11-25 18:12:50.683,0.930716,0.614892,8.575150,0.014122,0.010767,0.978416,0.128626,0.175599,9.768188,-0.009205,0.003614,-0.000801,0.805029,0.498470,-1.213461,100334.0000
1764074570786545889,2025-11-25 18:12:50.783,0.924074,0.615593,8.586916,0.014116,0.009458,0.978924,0.174832,0.005930,9.797042,0.004872,0.000900,-0.001020,0.801663,0.496575,-1.211939,100343.0000
1764074570887302908,2025-11-25 18:12:50.883,0.920862,0.611722,8.600006,0.014020,0.009191,0.978977,0.111890,0.164285,9.776055,0.000801,0.002595,0.001522,0.804108,0.501403,-1.210121,100328.0000
1764074570986842630,2025-11-25 18:12:50.983,0.924184,0.612370,8.615006,0.013893,0.009581,0.979085,0.153996,0.051741,9.808340,0.004663,-0.000647,-0.004284,0.803602,0.498037,-1.211026,100331.0000
1764074571085365667,2025-11-25 18:12:51.082,0.927634,0.609362,8.628672,0.013828,0.010100,0.978624,0.116319,0.137394,9.760698,0.003462,-0.000127,-0.000408,0.803606,0.499460,-1.211529,100336.0000
1764074571186800889,2025-11-25 18:12:51.183,0.931807,0.610733,8.644705,0.013582,0.010306,0.978467,0.149332,0.087400,9.800222,0.002458,0.001946,-0.005829,0.804567,0.500876,-1.212528,100328.0000
1764074571286878037,2025-11-25 18:12:51.283,0.929932,0.610177,8.657050,0.013967,0.010035,0.977948,0.138502,0.123373,9.764101,0.001130,-0.000915,0.001849,0.803607,0.500405,-1.212025,100340.0000
1764074571387050630,2025-11-25 18:12:51.383,0.931323,0.606675,8.667239,0.014094,0.009934,0.978191,0.144220,0.115675,9.805334,-0.002270,0.001682,-0.005438,0.802182,0.501862,-1.210582,100336.0000
1764074571486835537,2025-11-25 18:12:51.483,0.934118,0.600121,8.678768,0.014194,0.010092,0.978403,0.146355,0.060662,9.759270,0.004758,-0.001649,0.002731,0.804107,0.500458,-1.209625,100338.0000
1764074571586763870,2025-11-25 18:12:51.583,0.939702,0.594030,8.692453,0.013500,0.010530,0.978446,0.135760,0.174918,9.801142,0.000150,0.003998,-0.003049,0.802164,0.498985,-1.211019,100339.0000
1764074571687024704,2025-11-25 18:12:51.683,0.939549,0.596841,8.705060,0.013018,0.010066,0.978937,0.124857,0.030757,9.788983,0.003318,-0.000891,0.002335,0.800727,0.499467,-1.210524,100332.0000
1764074571787546167,2025-11-25 18:12:51.783,0.931997,0.603760,8.715586,0.013156,0.010374,0.979381,0.123440,0.167545,9.804530,-0.001582,-0.002541,-0.003050,0.802165,0.498518,-1.210531,100331.0000
1764074571886761370,2025-11-25 18:12:51.883,0.927700,0.615312,8.726951,0.013847,0.009664,0.979470,0.162536,-0.001264,9.778937,0.000538,-0.000968,0.000693,0.803130,0.501358,-1.212033,100338.0000
1764074571986492852,2025-11-25 18:12:51.983,0.927038,0.627916,8.740354,0.014149,0.009800,0.978858,0.141472,0.191864,9.775448,-0.003979,-0.003021,-0.002348,0.803611,0.499002,-1.210559,100329.0000
1764074572085456315,2025-11-25 18:12:52.082,0.929145,0.629832,8.752453,0.014563,0.009382,0.978178,0.172501,-0.000663,9.786847,0.000378,-0.001915,-0.000453,0.804094,0.497124,-1.209093,100336.0000
1764074572186939370,2025-11-25 18:12:52.183,0.933145,0.626267,8.765360,0.014608,0.010307,0.978034,0.108894,0.181464,9.770483,-0.000034,-0.001011,-0.002954,0.800230,0.499424,-1.212442,100340.0000
1764074572287219907,2025-11-25 18:12:52.283,0.934806,0.616467,8.780748,0.014567,0.010328,0.977724,0.181294,-0.004868,9.788343,0.003378,0.000982,-0.002264,0.803607,0.498992,-1.211040,100334.0000
1764074572386545203,2025-11-25 18:12:52.383,0.931367,0.605389,8.794296,0.013879,0.010439,0.977986,0.105279,0.178531,9.762104,-0.003054,0.000712,-0.001724,0.804099,0.500437,-1.210588,100334.0000
1764074572486968907,2025-11-25 18:12:52.483,0.924343,0.593255,8.804178,0.013497,0.010237,0.978608,0.140661,0.047019,9.817075,0.002486,0.003391,-0.001336,0.803149,0.500464,-1.209130,100329.0000
1764074572587006722,2025-11-25 18:12:52.583,0.919663,0.588376,8.813224,0.012952,0.010011,0.979254,0.100445,0.143500,9.768217,-0.003328,-0.000248,0.002143,0.804597,0.501425,-1.209166,100329.0000
1764074572687688833,2025-11-25 18:12:52.683,0.920859,0.594600,8.822565,0.013208,0.009735,0.979220,0.160410,0.057097,9.816808,0.000415,-0.001741,-0.004306,0.802174,0.498071,-1.209079,100334.0000
1764074572786775962,2025-11-25 18:12:52.783,0.925520,0.604505,8.829480,0.013886,0.009626,0.979098,0.116386,0.128129,9.773641,0.001352,-0.003497,0.001666,0.803139,0.502323,-1.211566,100331.0000
1764074572887051981,2025-11-25 18:12:52.883,0.933384,0.618072,8.843918,0.014472,0.009802,0.979056,0.168120,0.096894,9.803709,-0.001992,-0.003400,-0.006267,0.801224,0.500455,-1.209101,100334.0000
1764074572986622944,2025-11-25 18:12:52.983,0.939516,0.623203,8.860289,0.014445,0.009955,0.978483,0.124370,0.089617,9.762381,0.002497,-0.001933,0.003319,0.802168,0.501353,-1.212019,100337.0000
1764074573085664184,2025-11-25 18:12:53.082,0.945964,0.622274,8.877130,0.014287,0.010716,0.978497,0.155549,0.145549,9.816541,0.002397,0.000079,-0.003876,0.801679,0.501331,-1.212974,100336.0000
1764074573186636481,2025-11-25 18:12:53.183,0.947571,0.614363,8.889292,0.013886,0.010507,0.978283,0.123913,0.075035,9.770263,0.005739,0.000187,0.007226,0.802662,0.500919,-1.210093,100341.0000
1764074573286732055,2025-11-25 18:12:53.283,0.942274,0.604021,8.900195,0.013827,0.011029,0.978294,0.144887,0.163347,9.813577,-0.004057,0.001615,-0.004428,0.801683,0.501341,-1.212493,100332.0000
1764074573386686925,2025-11-25 18:12:53.383,0.930131,0.600141,8.909429,0.013373,0.010594,0.978524,0.135145,0.044941,9.781860,0.001661,0.000491,0.000310,0.802182,0.501862,-1.210582,100338.0000
1764074573486513388,2025-11-25 18:12:53.483,0.919027,0.604139,8.921410,0.013113,0.010087,0.978900,0.118104,0.188965,9.806884,0.001938,-0.002026,-0.002408,0.801248,0.503819,-1.208190,100331.0000
1764074573585839036,2025-11-25 18:12:53.583,0.914125,0.608699,8.934793,0.013471,0.009101,0.978865,0.153270,-0.000065,9.787918,0.004170,-0.004377,0.002277,0.802187,0.502817,-1.210597,100331.0000
1764074573686684554,2025-11-25 18:12:53.683,0.911591,0.614125,8.948971,0.013572,0.009640,0.978871,0.106585,0.189931,9.789318,-0.000928,0.000350,-0.002054,0.803155,0.503309,-1.210137,100329.0000
1764074573786690536,2025-11-25 18:12:53.783,0.915974,0.624741,8.959549,0.013907,0.009584,0.978597,0.170155,-0.008197,9.789895,0.005086,-0.002882,-0.000724,0.799777,0.500438,-1.209561,100338.0000
1764074573886940350,2025-11-25 18:12:53.883,0.915965,0.629753,8.967604,0.014746,0.010750,0.978852,0.124810,0.201939,9.769395,-0.003180,-0.001319,0.000875,0.802639,0.502270,-1.213966,100334.0000
1764074573986400850,2025-11-25 18:12:53.983,0.914378,0.624086,8.976019,0.015382,0.009535,0.979136,0.165218,0.020256,9.813583,0.002079,0.003886,-0.002319,0.800746,0.503288,-1.210582,100334.0000
1764074574085454387,2025-11-25 18:12:54.082,0.914100,0.604019,8.984629,0.015150,0.009514,0.978789,0.111941,0.161051,9.763068,0.001897,0.003121,-0.000688,0.803631,0.501411,-1.209633,100334.0000
1764074574186329202,2025-11-25 18:12:54.183,0.923149,0.585825,8.998199,0.014062,0.009303,0.978705,0.155901,0.043481,9.810369,0.004196,0.004050,-0.003555,0.800746,0.501876,-1.209598,100331.0000
1764074574286779961,2025-11-25 18:12:54.283,0.936764,0.575122,9.007595,0.012944,0.009673,0.978287,0.104789,0.136580,9.756221,0.004085,-0.001828,0.003287,0.801697,0.501849,-1.211056,100337.0000
1764074574386647591,2025-11-25 18:12:54.383,0.943666,0.578290,9.018054,0.012304,0.010924,0.977703,0.115512,0.115262,9.799911,-0.000972,-0.003376,-0.005092,0.802176,0.501374,-1.211056,100334.0000
1764074574486464480,2025-11-25 18:12:54.483,0.944649,0.588234,9.027449,0.012513,0.011532,0.978178,0.127756,0.076480,9.759218,0.003034,-0.001533,0.003008,0.800234,0.501792,-1.213442,100340.0000
1764074574586782850,2025-11-25 18:12:54.583,0.932720,0.607421,9.037342,0.013191,0.011641,0.978306,0.130149,0.156842,9.792086,-0.003116,-0.003229,-0.000802,0.801211,0.500892,-1.211034,100340.0000
1764074574689019646,2025-11-25 18:12:54.683,0.912692,0.626418,9.050400,0.013900,0.010339,0.978686,0.144786,0.020567,9.779353,-0.002553,-0.004427,-0.000479,0.802653,0.501366,-1.211544,100337.0000
1764074574786835776,2025-11-25 18:12:54.783,0.895795,0.636557,9.064993,0.014386,0.010221,0.978945,0.133338,0.178056,9.795281,-0.002995,-0.004393,-0.002898,0.800248,0.502300,-1.212005,100336.0000
1764074574886879054,2025-11-25 18:12:54.883,0.881135,0.640767,9.079234,0.014863,0.008722,0.979239,0.175107,-0.004259,9.793407,-0.001344,-0.001126,-0.002879,0.802181,0.503274,-1.211567,100334.0000
1764074574986759109,2025-11-25 18:12:54.983,0.879852,0.638683,9.091315,0.015217,0.008917,0.979164,0.116362,0.181093,9.792815,-0.000171,0.000790,-0.002575,0.800264,0.502341,-1.210079,100338.0000
1764074575085673942,2025-11-25 18:12:55.082,0.887607,0.622374,9.103666,0.014919,0.008810,0.979283,0.156350,0.005710,9.814665,0.003905,0.006590,-0.003897,0.799794,0.504727,-1.210109,100331.0000
1764074575186780683,2025-11-25 18:12:55.183,0.900200,0.601735,9.114429,0.014211,0.009739,0.978724,0.108723,0.185847,9.779103,0.002658,0.004047,0.003103,0.801696,0.503262,-1.212041,100338.0000
1764074575289425072,2025-11-25 18:12:55.283,0.915759,0.582863,9.121039,0.013757,0.010022,0.978409,0.170503,0.031852,9.810397,-0.000253,0.003615,-0.003841,0.800275,0.503784,-1.209620,100340.0000
1764074575387144442,2025-11-25 18:12:55.383,0.931910,0.569630,9.130717,0.012410,0.010162,0.978352,0.107328,0.162521,9.755623,0.006396,-0.001212,0.005449,0.802201,0.503325,-1.209160,100335.0000
1764074575486920350,2025-11-25 18:12:55.483,0.943070,0.569104,9.138579,0.012323,0.010956,0.978392,0.147662,0.077922,9.821062,0.000055,0.000327,-0.003842,0.799772,0.503253,-1.212012,100337.0000
1764074575586593535,2025-11-25 18:12:55.583,0.943932,0.586265,9.148691,0.012352,0.011141,0.978012,0.121866,0.124278,9.758898,0.004464,-0.003396,0.003669,0.800258,0.504211,-1.212034,100341.0000
1764074575689512683,2025-11-25 18:12:55.683,0.930007,0.609688,9.163342,0.013140,0.011607,0.978215,0.158710,0.126614,9.806196,-0.003406,-0.007858,-0.001111,0.800273,0.506610,-1.211589,100337.0000
1764074575786402183,2025-11-25 18:12:55.783,0.912957,0.641703,9.174414,0.014260,0.010518,0.978369,0.134229,0.082533,9.758177,-0.000991,-0.002887,0.001771,0.800249,0.503245,-1.212501,100340.0000
1764074575886577072,2025-11-25 18:12:55.883,0.891836,0.657240,9.181057,0.015445,0.009971,0.978810,0.153535,0.134554,9.809417,0.000004,-0.005286,-0.000613,0.801715,0.504726,-1.210619,100338.0000
1764074575986612757,2025-11-25 18:12:55.983,0.879301,0.657086,9.187346,0.016178,0.008514,0.979282,0.173688,0.019860,9.777511,0.000739,0.003367,-0.001117,0.801691,0.505132,-1.213996,100335.0000
1764074576086000090,2025-11-25 18:12:56.083,0.878131,0.633195,9.195436,0.015678,0.008704,0.979277,0.135502,0.174768,9.796761,0.007315,0.005389,-0.001046,0.797863,0.503285,-1.210058,100331.0000
1764074576186829053,2025-11-25 18:12:56.183,0.889650,0.599275,9.206950,0.014714,0.008487,0.978921,0.155264,-0.022106,9.776465,0.001175,0.010127,-0.000032,0.799776,0.503264,-1.211531,100328.0000
1764074576286467645,2025-11-25 18:12:56.283,0.908112,0.569026,9.214996,0.012910,0.009707,0.978520,0.100302,0.201285,9.777875,0.005131,0.006265,-0.000314,0.800739,0.504213,-1.212041,100334.0000
1764074576386761016,2025-11-25 18:12:56.383,0.922828,0.556276,9.225316,0.012189,0.010257,0.978146,0.146977,0.037391,9.793323,0.003906,0.002635,-0.000263,0.801247,0.506644,-1.210159,100331.0000
1764074576486803812,2025-11-25 18:12:56.483,0.932705,0.561343,9.233640,0.011710,0.011597,0.977974,0.102814,0.205718,9.770210,0.000224,-0.001888,-0.000739,0.802190,0.504240,-1.211100,100336.0000
1764074576586500904,2025-11-25 18:12:56.583,0.927608,0.583208,9.242211,0.012583,0.011019,0.978252,0.148857,0.028847,9.802009,0.003479,-0.004140,-0.002018,0.800748,0.503766,-1.210590,100340.0000
1764074576686832960,2025-11-25 18:12:56.683,0.916965,0.612824,9.246177,0.013537,0.010632,0.978609,0.129817,0.134875,9.771388,0.000699,-0.007428,0.004369,0.799313,0.504725,-1.210102,100331.0000
1764074576786443275,2025-11-25 18:12:56.783,0.905416,0.635919,9.254083,0.014962,0.010008,0.979125,0.195142,0.078878,9.826458,0.000429,0.001098,-0.009717,0.796898,0.502803,-1.210037,100334.0000
1764074576886341275,2025-11-25 18:12:56.883,0.893810,0.643170,9.262896,0.015502,0.009549,0.978947,0.139156,0.125085,9.753967,-0.001284,-0.005893,0.001861,0.799301,0.506107,-1.212530,100338.0000
1764074576986799293,2025-11-25 18:12:56.983,0.891726,0.636950,9.274366,0.015297,0.009310,0.978971,0.159115,0.091481,9.821113,-0.000439,0.000892,-0.004566,0.799285,0.503708,-1.212975,100341.0000
1764074577085613886,2025-11-25 18:12:57.082,0.896030,0.620110,9.281921,0.014973,0.009348,0.978327,0.137190,0.074318,9.767557,0.008471,0.001615,0.004979,0.800277,0.508032,-1.212093,100336.0000
1764074577186677886,2025-11-25 18:12:57.183,0.901595,0.600540,9.290082,0.013607,0.009814,0.978652,0.119323,0.154969,9.806149,-0.002577,0.001843,-0.001377,0.799787,0.505652,-1.211567,100339.0000
1764074577286557941,2025-11-25 18:12:57.283,0.907449,0.584124,9.293400,0.012860,0.010096,0.978292,0.125617,0.025277,9.768015,-0.001117,0.001907,0.003515,0.799802,0.504748,-1.209146,100335.0000
1764074577386648385,2025-11-25 18:12:57.383,0.910101,0.582798,9.298050,0.012342,0.010509,0.978721,0.094136,0.183941,9.794439,0.004341,-0.002062,-0.000666,0.800753,0.504721,-1.210604,100336.0000
1764074577486647552,2025-11-25 18:12:57.483,0.909650,0.598428,9.303555,0.012212,0.009963,0.978562,0.145178,0.016746,9.772489,0.000410,-0.004965,-0.000707,0.802176,0.505144,-1.213521,100331.0000
1764074577586696867,2025-11-25 18:12:57.583,0.904622,0.613027,9.310908,0.013101,0.010608,0.978451,0.115291,0.184733,9.778695,0.000418,-0.005186,0.001308,0.798350,0.506133,-1.211072,100338.0000
1764074577686770515,2025-11-25 18:12:57.683,0.897497,0.629718,9.319748,0.014222,0.009877,0.978649,0.173733,-0.003236,9.797648,0.000065,-0.001040,0.001238,0.798343,0.506113,-1.212035,100333.0000
1764074577785929404,2025-11-25 18:12:57.783,0.891332,0.636928,9.325027,0.014992,0.009626,0.978344,0.128499,0.155596,9.765783,-0.000504,0.001378,0.003882,0.799775,0.504676,-1.212515,100330.0000
1764074577886693755,2025-11-25 18:12:57.883,0.894736,0.630956,9.324121,0.015345,0.008953,0.978805,0.171582,0.051160,9.817616,0.004549,0.000495,-0.002975,0.801211,0.503250,-1.212515,100341.0000
1764074577986335218,2025-11-25 18:12:57.983,0.901818,0.615227,9.329837,0.014660,0.009214,0.978670,0.130652,0.143435,9.740911,0.000882,-0.001586,0.004076,0.798824,0.502345,-1.209577,100329.0000
1764074578085437422,2025-11-25 18:12:58.082,0.915895,0.600617,9.331846,0.013706,0.009884,0.978686,0.152017,0.075457,9.814296,0.008622,0.002497,-0.003227,0.798826,0.506593,-1.212049,100333.0000
1764074578186160700,2025-11-25 18:12:58.183,0.922467,0.590759,9.337948,0.012728,0.010934,0.978822,0.116920,0.115851,9.752416,0.001077,-0.003085,0.005053,0.800275,0.506142,-1.211101,100340.0000
1764074578286524940,2025-11-25 18:12:58.283,0.915668,0.595585,9.345389,0.012440,0.011451,0.978631,0.135436,0.156546,9.798193,-0.001095,-0.001889,-0.005672,0.798358,0.507566,-1.211094,100336.0000
1764074578386416533,2025-11-25 18:12:58.383,0.905160,0.609249,9.353692,0.013428,0.010440,0.978186,0.134202,0.045137,9.770716,0.004625,-0.003399,0.002188,0.799788,0.504239,-1.210583,100333.0000
1764074578487486940,2025-11-25 18:12:58.482,0.886894,0.623994,9.353371,0.014417,0.010024,0.977985,0.134508,0.163309,9.791100,-0.006787,-0.003884,0.000246,0.798823,0.505170,-1.211546,100340.0000
1764074578586773107,2025-11-25 18:12:58.583,0.877861,0.629172,9.354741,0.014649,0.008569,0.978322,0.160359,-0.012907,9.769664,0.004073,0.000553,0.002113,0.799786,0.506119,-1.212056,100332.0000
1764074578688101625,2025-11-25 18:12:58.683,0.881751,0.626132,9.352390,0.014306,0.008825,0.978991,0.105107,0.189240,9.788519,0.002886,-0.000444,0.001358,0.797863,0.505643,-1.211539,100333.0000
1764074578786853125,2025-11-25 18:12:58.783,0.888402,0.621503,9.350737,0.013996,0.009139,0.979224,0.165667,0.004168,9.803925,0.001777,0.000396,-0.002057,0.799317,0.508506,-1.212086,100340.0000
1764074578886990310,2025-11-25 18:12:58.883,0.898770,0.618534,9.349942,0.013629,0.010628,0.979111,0.105835,0.180727,9.767440,0.002269,-0.000257,0.000885,0.798823,0.505170,-1.211546,100340.0000
1764074578986937551,2025-11-25 18:12:58.983,0.905406,0.612694,9.356084,0.014172,0.010164,0.979288,0.178265,0.032052,9.794840,0.000653,0.000206,-0.000428,0.798816,0.503737,-1.211524,100342.0000
1764074579085630718,2025-11-25 18:12:59.082,0.910645,0.609293,9.359237,0.014460,0.010602,0.978737,0.115288,0.166781,9.761431,-0.000995,0.002001,0.000409,0.799790,0.503772,-1.210094,100342.0000
1764074579186061125,2025-11-25 18:12:59.183,0.914426,0.601851,9.365076,0.014189,0.010362,0.978091,0.165620,0.046839,9.797622,-0.002312,0.001173,-0.005044,0.799298,0.507042,-1.213508,100329.0000
1764074579286698477,2025-11-25 18:12:59.283,0.911836,0.592041,9.366804,0.014020,0.010093,0.977900,0.111360,0.108991,9.771391,0.002334,-0.002366,0.006778,0.799808,0.506648,-1.209657,100329.0000
1764074579386947032,2025-11-25 18:12:59.383,0.910580,0.592521,9.364769,0.012640,0.010254,0.978097,0.127437,0.106597,9.796138,-0.001219,-0.001064,-0.002413,0.800735,0.504203,-1.212522,100333.0000
1764074579486749384,2025-11-25 18:12:59.483,0.902020,0.605399,9.362145,0.012616,0.010057,0.978516,0.107476,0.081986,9.764711,-0.001841,-0.005562,0.006001,0.799813,0.507603,-1.209671,100338.0000
1764074579586489717,2025-11-25 18:12:59.583,0.898104,0.627165,9.360486,0.012929,0.010371,0.979210,0.138653,0.163881,9.825632,0.002390,-0.007191,-0.000228,0.800251,0.505136,-1.213493,100340.0000
1764074579686423754,2025-11-25 18:12:59.683,0.893572,0.648805,9.358805,0.014666,0.009808,0.979518,0.166040,0.029750,9.775707,-0.001565,-0.003413,0.003439,0.797861,0.506111,-1.212028,100332.0000
1764074579786514921,2025-11-25 18:12:59.783,0.890224,0.657429,9.359830,0.015472,0.010004,0.979301,0.132315,0.171616,9.789310,0.003165,-0.003671,0.000658,0.800751,0.502831,-1.209612,100340.0000
1764074579886962088,2025-11-25 18:12:59.883,0.896023,0.646970,9.358139,0.015923,0.009161,0.978448,0.172521,0.009403,9.779250,-0.002412,0.005048,0.001766,0.799787,0.507064,-1.212552,100338.0000
1764074579986930976,2025-11-25 18:12:59.983,0.900313,0.615657,9.354367,0.015242,0.009972,0.978224,0.127946,0.171268,9.774833,0.003900,0.005293,0.003823,0.800277,0.504262,-1.209627,100332.0000
1764074580085693976,2025-11-25 18:13:00.082,0.910172,0.588727,9.356234,0.013910,0.009727,0.978048,0.140796,0.018665,9.791318,0.000938,0.002187,-0.000365,0.798820,0.503747,-1.211042,100339.0000
1764074580186721143,2025-11-25 18:13:00.183,0.912221,0.569459,9.353072,0.012168,0.010343,0.977807,0.080482,0.193096,9.753502,-0.003297,0.002892,0.001623,0.800274,0.505197,-1.210605,100339.0000
1764074580287541976,2025-11-25 18:13:00.283,0.909993,0.567221,9.353150,0.011675,0.010667,0.978507,0.157133,0.050040,9.804646,0.002313,-0.001698,-0.003177,0.801241,0.506156,-1.210634,100324.0000
1764074580386862347,2025-11-25 18:13:00.383,0.904072,0.586249,9.354909,0.011677,0.010819,0.978806,0.121167,0.152315,9.774047,-0.003826,-0.003100,0.001584,0.799785,0.505174,-1.211560,100327.0000
1764074580486785532,2025-11-25 18:13:00.483,0.893122,0.618167,9.353119,0.012886,0.009974,0.979074,0.147376,0.089160,9.815621,0.003903,-0.008711,-0.004253,0.797871,0.505663,-1.210577,100338.0000
1764074580589333198,2025-11-25 18:13:00.583,0.889708,0.649270,9.345178,0.014414,0.009335,0.979105,0.158649,0.072095,9.768125,0.000930,-0.009268,0.005768,0.797377,0.504686,-1.211517,100339.0000
1764074580687666087,2025-11-25 18:13:00.683,0.889327,0.669184,9.339348,0.015481,0.009609,0.978859,0.154112,0.139424,9.802737,0.006074,-0.002751,-0.003134,0.797867,0.504241,-1.210073,100329.0000
1764074580786493754,2025-11-25 18:13:00.783,0.895039,0.667066,9.334110,0.016164,0.009717,0.978534,0.161507,0.044204,9.781748,0.003019,-0.000169,0.004847,0.798324,0.502292,-1.211976,100334.0000
1764074580887252550,2025-11-25 18:13:00.883,0.898727,0.648629,9.328115,0.015584,0.010862,0.978404,0.133789,0.187118,9.792670,-0.003256,0.000883,-0.001842,0.799295,0.505619,-1.213005,100340.0000
1764074580986529309,2025-11-25 18:13:00.983,0.900185,0.619361,9.324227,0.014494,0.010621,0.978383,0.158815,0.009220,9.771677,0.006723,-0.000927,0.005054,0.801247,0.506644,-1.210159,100333.0000
1764074581085716328,2025-11-25 18:13:01.082,0.893779,0.598442,9.320938,0.013580,0.010839,0.978567,0.107354,0.185901,9.775947,-0.002661,0.001859,0.000378,0.801225,0.503758,-1.211078,100334.0000
1764074581186929309,2025-11-25 18:13:01.183,0.884257,0.581062,9.314971,0.012934,0.009409,0.978573,0.146005,-0.007183,9.799454,0.005416,0.001644,0.000762,0.801245,0.506167,-1.210152,100333.0000
1764074581286915179,2025-11-25 18:13:01.283,0.885114,0.577139,9.307127,0.012369,0.009388,0.978643,0.092522,0.188758,9.756366,0.001752,-0.003248,0.004098,0.798843,0.506166,-1.209635,100328.0000
1764074581386795661,2025-11-25 18:13:01.383,0.893567,0.590059,9.300182,0.012299,0.009753,0.978849,0.152862,0.039112,9.817359,0.006601,-0.006093,0.001587,0.799293,0.505141,-1.212997,100331.0000
1764074581486366457,2025-11-25 18:13:01.483,0.900486,0.619795,9.295331,0.012519,0.009884,0.978474,0.116812,0.132555,9.758886,-0.002316,-0.004376,0.005258,0.798803,0.504174,-1.213457,100327.0000
1764074581585962568,2025-11-25 18:13:01.583,0.905438,0.645505,9.292256,0.014107,0.010463,0.978788,0.165807,0.093897,9.807407,0.004378,-0.003803,0.001695,0.797861,0.505166,-1.211532,100339.0000
1764074581687145383,2025-11-25 18:13:01.683,0.907162,0.663717,9.289241,0.015599,0.010571,0.978417,0.154265,0.093400,9.761930,0.003740,0.002169,0.005643,0.800261,0.505634,-1.212537,100343.0000
1764074581786583216,2025-11-25 18:13:01.783,0.905900,0.662425,9.283235,0.015925,0.010617,0.978301,0.149594,0.133544,9.799748,0.003766,-0.000890,-0.000866,0.801227,0.505648,-1.212070,100333.0000
1764074581886660549,2025-11-25 18:13:01.883,0.899605,0.641768,9.272776,0.015200,0.009918,0.978426,0.152493,0.042423,9.776732,0.000644,0.004450,0.003949,0.799294,0.504674,-1.212508,100340.0000
1764074581986537938,2025-11-25 18:13:01.983,0.894469,0.615520,9.261647,0.014058,0.010649,0.978916,0.126106,0.186573,9.796714,-0.007218,0.001667,0.002759,0.800273,0.504252,-1.210108,100344.0000
1764074582085624734,2025-11-25 18:13:02.082,0.888961,0.599868,9.255184,0.012986,0.010258,0.979325,0.146910,0.004589,9.794102,-0.000099,0.002361,0.003618,0.800287,0.507118,-1.210153,100340.0000
1764074582186386957,2025-11-25 18:13:02.183,0.879740,0.594605,9.250397,0.012288,0.010251,0.978907,0.091210,0.174168,9.796535,-0.003425,-0.001583,0.003197,0.799798,0.506150,-1.210612,100329.0000
1764074582286938216,2025-11-25 18:13:02.283,0.875816,0.604184,9.240109,0.012981,0.009136,0.978752,0.162824,0.021521,9.791717,0.003239,-0.005587,-0.001649,0.797858,0.504688,-1.211524,100337.0000
1764074582386355086,2025-11-25 18:13:02.383,0.879398,0.617706,9.230947,0.013858,0.009101,0.978561,0.122392,0.188195,9.756473,0.002158,-0.005038,0.006207,0.800273,0.505664,-1.211093,100338.0000
1764074582486528216,2025-11-25 18:13:02.483,0.887009,0.626415,9.220943,0.014741,0.009434,0.978558,0.180038,0.031646,9.805256,0.003465,0.000463,-0.002820,0.800719,0.504162,-1.214448,100336.0000
1764074582586099086,2025-11-25 18:13:02.583,0.890142,0.627678,9.209557,0.014985,0.010116,0.978565,0.122063,0.141129,9.759762,0.002251,-0.000761,0.009410,0.800254,0.502788,-1.211531,100340.0000
1764074582687238660,2025-11-25 18:13:02.683,0.894860,0.616633,9.196321,0.014423,0.010265,0.978467,0.151976,0.115257,9.796119,0.003903,0.000684,0.000753,0.800773,0.505717,-1.208694,100338.0000
1764074582786505160,2025-11-25 18:13:02.783,0.900640,0.612470,9.181205,0.013332,0.009834,0.978692,0.121619,0.095510,9.773174,0.006129,0.002947,0.006014,0.798321,0.501814,-1.211969,100338.0000
1764074582887063308,2025-11-25 18:13:02.883,0.901934,0.609974,9.171288,0.012819,0.010492,0.978413,0.114375,0.153402,9.795298,-0.002818,0.000845,-0.002215,0.801705,0.504228,-1.211574,100335.0000
1764074582986480271,2025-11-25 18:13:02.983,0.903288,0.622000,9.159656,0.012706,0.010482,0.978758,0.128510,0.040385,9.776560,-0.000661,-0.003417,0.005391,0.802674,0.503307,-1.210129,100334.0000
1764074583085423975,2025-11-25 18:13:03.082,0.896164,0.637433,9.149843,0.013760,0.011312,0.979061,0.135361,0.199967,9.809236,-0.005936,-0.004035,-0.000538,0.800746,0.503288,-1.210582,100336.0000
1764074583186503697,2025-11-25 18:13:03.183,0.882941,0.640755,9.136493,0.015099,0.010523,0.979167,0.174122,0.006092,9.805286,0.006018,-0.003276,0.005704,0.801220,0.504215,-1.212048,100333.0000
1764074583286256863,2025-11-25 18:13:03.283,0.868261,0.635189,9.121365,0.015388,0.009642,0.979245,0.114674,0.187548,9.783252,-0.003257,0.000018,0.003757,0.798817,0.503269,-1.211035,100340.0000
1764074583386779141,2025-11-25 18:13:03.383,0.863572,0.620132,9.109580,0.014916,0.007847,0.978779,0.184151,0.003083,9.794641,0.002189,0.007175,0.000730,0.801221,0.503748,-1.211560,100333.0000
1764074583486679067,2025-11-25 18:13:03.483,0.875137,0.602444,9.097604,0.013790,0.008522,0.978013,0.112243,0.158499,9.760869,0.000298,0.002780,0.001670,0.802167,0.502766,-1.213004,100338.0000
1764074583587231345,2025-11-25 18:13:03.583,0.897332,0.588543,9.085415,0.013230,0.009915,0.978342,0.146026,0.057396,9.804717,0.009509,0.000133,0.000001,0.801219,0.503270,-1.211552,100335.0000
1764074583687475437,2025-11-25 18:13:03.683,0.914637,0.585990,9.069760,0.012871,0.011274,0.977963,0.100973,0.143075,9.755949,0.003713,-0.003672,0.005106,0.800751,0.502831,-1.209612,100348.0000
1764074583786879548,2025-11-25 18:13:03.783,0.917878,0.591963,9.054145,0.012637,0.011683,0.978663,0.135356,0.108006,9.810628,0.001512,-0.002060,-0.000225,0.801214,0.502315,-1.211538,100330.0000
1764074583886789345,2025-11-25 18:13:03.883,0.902955,0.606657,9.039309,0.012998,0.011608,0.978777,0.115658,0.083612,9.765959,-0.001930,-0.003893,0.007644,0.801215,0.503260,-1.212034,100340.0000
1764074583988060159,2025-11-25 18:13:03.983,0.885409,0.623592,9.024470,0.013810,0.010813,0.978921,0.154196,0.168172,9.799935,-0.004188,-0.003795,0.001233,0.801705,0.501870,-1.210093,100338.0000
1764074584085476141,2025-11-25 18:13:04.083,0.866363,0.638868,9.010649,0.014315,0.008924,0.978914,0.171055,0.006613,9.766292,0.002280,-0.003547,0.006896,0.801697,0.504207,-1.212537,100332.0000
1764074584186656844,2025-11-25 18:13:04.183,0.863460,0.647363,8.997116,0.014926,0.008798,0.978603,0.134126,0.151774,9.788533,0.004034,0.000394,0.001527,0.801693,0.501839,-1.211537,100339.0000
1764074584286837992,2025-11-25 18:13:04.283,0.871659,0.636443,8.982570,0.015349,0.008119,0.978956,0.174275,-0.004404,9.789215,0.001050,0.004204,0.002757,0.801217,0.501379,-1.210560,100338.0000
1764074584386714622,2025-11-25 18:13:04.383,0.888470,0.621261,8.965180,0.014942,0.009686,0.978762,0.118063,0.192163,9.791398,0.006381,0.001696,0.001703,0.803605,0.500872,-1.212514,100340.0000
1764074584486945992,2025-11-25 18:13:04.483,0.897385,0.601072,8.948538,0.014074,0.011094,0.978840,0.173839,0.030510,9.788404,0.003785,0.002659,0.004887,0.802162,0.499453,-1.211508,100329.0000
1764074584586734381,2025-11-25 18:13:04.583,0.897804,0.586794,8.926891,0.012914,0.011642,0.978254,0.065604,0.196186,9.756002,-0.001431,0.006619,0.006683,0.804110,0.501880,-1.210129,100333.0000
1764074584686704437,2025-11-25 18:13:04.683,0.886248,0.581916,8.911480,0.012997,0.010824,0.978462,0.155638,0.033148,9.799009,-0.000830,-0.002235,0.001380,0.803139,0.499965,-1.210085,100336.0000
1764074584785944844,2025-11-25 18:13:04.783,0.874783,0.585707,8.893679,0.012892,0.009607,0.978439,0.123258,0.149367,9.763754,-0.004418,-0.001378,0.008108,0.803155,0.502364,-1.209641,100340.0000
1764074584886645844,2025-11-25 18:13:04.883,0.870054,0.600142,8.877435,0.012900,0.009249,0.978883,0.164975,0.069082,9.812584,0.003378,-0.006508,-0.001107,0.803129,0.499467,-1.211041,100332.0000
1764074584986606233,2025-11-25 18:13:04.983,0.878246,0.614353,8.861613,0.013625,0.008951,0.979079,0.124797,0.107004,9.768716,-0.001034,0.000303,0.005298,0.805056,0.500899,-1.211572,100343.0000
1764074585085437066,2025-11-25 18:13:05.082,0.887770,0.630606,8.848878,0.014366,0.009820,0.978600,0.176210,0.110262,9.806978,0.005068,-0.003044,0.003544,0.804097,0.499959,-1.210581,100337.0000
1764074585186676751,2025-11-25 18:13:05.183,0.896665,0.636688,8.833600,0.014835,0.010458,0.978565,0.142326,0.057037,9.775089,0.000196,-0.000755,0.007645,0.802641,0.501335,-1.212988,100335.0000
1764074585286559492,2025-11-25 18:13:05.283,0.894708,0.631286,8.817163,0.014744,0.011398,0.978359,0.147735,0.183976,9.795609,0.005750,-0.000318,0.002756,0.804077,0.497551,-1.211507,100337.0000
1764074585386742399,2025-11-25 18:13:05.383,0.887546,0.620859,8.797742,0.014536,0.010449,0.979180,0.150144,0.012776,9.792949,0.000410,-0.000055,0.005311,0.804563,0.499921,-1.212513,100331.0000
1764074585486487621,2025-11-25 18:13:05.483,0.879223,0.614021,8.778345,0.013828,0.010001,0.979285,0.114704,0.185560,9.788786,0.001351,-0.000043,-0.000035,0.805046,0.499456,-1.212032,100338.0000
1764074585586181825,2025-11-25 18:13:05.583,0.873137,0.608532,8.758139,0.013489,0.008793,0.979128,0.138928,-0.007831,9.785063,-0.000314,0.000386,0.006407,0.804577,0.499017,-1.210092,100332.0000
1764074585686648640,2025-11-25 18:13:05.683,0.877329,0.609871,8.740958,0.013308,0.009557,0.978654,0.087401,0.184689,9.761249,0.002895,0.000782,0.003734,0.803623,0.499033,-1.209115,100338.0000
1764074585786313992,2025-11-25 18:13:05.783,0.881500,0.615736,8.727127,0.013424,0.009957,0.978347,0.165801,0.025119,9.801200,-0.001758,-0.000814,0.000977,0.806014,0.499948,-1.211572,100334.0000
1764074585886804436,2025-11-25 18:13:05.883,0.881116,0.621288,8.710975,0.014046,0.010875,0.978555,0.109930,0.181800,9.772912,0.002547,-0.000611,0.006865,0.804553,0.498010,-1.212484,100335.0000
1764074585986462454,2025-11-25 18:13:05.983,0.874466,0.623517,8.694936,0.014027,0.010375,0.978156,0.186926,0.050793,9.800714,-0.000746,0.000150,-0.001468,0.804082,0.498506,-1.211522,100335.0000
1764074586085486788,2025-11-25 18:13:06.082,0.863410,0.619731,8.677335,0.014296,0.009896,0.978445,0.120282,0.142858,9.764483,0.006593,-0.001676,0.005773,0.804099,0.498080,-1.209107,100336.0000
