Timestamp,Time,Roll,Pitch,Yaw,Magnetic_Field_X,Magnetic_Field_Y,Magnetic_Field_Z,Angular_Rate_X,Angular_Rate_Y,Angular_Rate_Z,Acceleration_X,Acceleration_Y,Acceleration_Z
1764077384388008268,2025-11-25 18:59:44.384,-1.048000,1.425000,145.424000,-0.030200,-0.320600,0.112800,0.255000,0.165000,-10.110000,-0.000313,-0.000904,-0.007543
1764077384413157823,2025-11-25 18:59:44.410,-1.048000,1.424000,145.414000,-0.028500,-0.322500,0.106700,0.252000,0.196000,-10.106000,-0.001063,-0.001540,-0.006662
1764077384435877990,2025-11-25 18:59:44.434,-1.048000,1.423000,145.402000,-0.029300,-0.324400,0.112900,0.253000,0.198000,-10.125000,-0.000006,-0.000786,-0.008464
1764077384463795694,2025-11-25 18:59:44.461,-1.048000,1.421000,145.392000,-0.030200,-0.323400,0.116000,0.238000,0.178000,-10.145000,0.000387,-0.001076,-0.007192
1764077384486841120,2025-11-25 18:59:44.485,-1.048000,1.420000,145.381000,-0.030200,-0.323400,0.114900,0.266000,0.166000,-10.105000,-0.000218,-0.000531,-0.007126
1764077384511636972,2025-11-25 18:59:44.510,-1.048000,1.418000,145.370000,-0.030000,-0.316000,0.114900,0.256000,0.188000,-10.104000,-0.000257,-0.000400,-0.007621
1764077384547210323,2025-11-25 18:59:44.545,-1.049000,1.416000,145.359000,-0.030300,-0.325300,0.109800,0.229000,0.208000,-10.144000,-0.000410,-0.000973,-0.007768
1764077384560638471,2025-11-25 18:59:44.559,-1.049000,1.414000,145.350000,-0.028500,-0.325300,0.115000,0.271000,0.183000,-10.121000,-0.000399,-0.001489,-0.007090
1764077384585302323,2025-11-25 18:59:44.584,-1.049000,1.412000,145.338000,-0.027600,-0.323500,0.114000,0.242000,0.191000,-10.094000,-0.000009,-0.000846,-0.006586
1764077384610434138,2025-11-25 18:59:44.609,-1.048000,1.409000,145.328000,-0.027600,-0.326300,0.117200,0.257000,0.172000,-10.135000,0.000617,-0.001425,-0.006823
1764077384638194508,2025-11-25 18:59:44.634,-1.048000,1.409000,145.316000,-0.024900,-0.322600,0.115200,0.233000,0.181000,-10.164000,-0.001645,-0.000908,-0.007194
1764077384660354342,2025-11-25 18:59:44.659,-1.048000,1.406000,145.306000,-0.029300,-0.321600,0.116000,0.234000,0.188000,-10.105000,0.000836,-0.000145,-0.008247
1764077384685264360,2025-11-25 18:59:44.684,-1.049000,1.406000,145.295000,-0.027500,-0.322500,0.113000,0.281000,0.173000,-10.082000,-0.000567,-0.001254,-0.006698
1764077384712402379,2025-11-25 18:59:44.710,-1.048000,1.404000,145.284000,-0.028300,-0.317900,0.112900,0.229000,0.195000,-10.118000,-0.000220,0.000700,-0.007008
1764077384735349731,2025-11-25 18:59:44.734,-1.049000,1.403000,145.272000,-0.025800,-0.321700,0.109000,0.253000,0.168000,-10.126000,0.000688,-0.000513,-0.007119
1764077384760360175,2025-11-25 18:59:44.759,-1.048000,1.405000,145.262000,-0.025800,-0.324400,0.110000,0.232000,0.191000,-10.131000,-0.001099,0.000282,-0.007918
1764077384785811953,2025-11-25 18:59:44.784,-1.049000,1.403000,145.251000,-0.026800,-0.327200,0.113100,0.234000,0.181000,-10.099000,0.000767,0.000038,-0.006032
1764077384810282934,2025-11-25 18:59:44.809,-1.048000,1.405000,145.240000,-0.027500,-0.323500,0.116100,0.252000,0.198000,-10.120000,0.001047,0.000308,-0.007282
1764077384835374156,2025-11-25 18:59:44.834,-1.048000,1.404000,145.230000,-0.027600,-0.323500,0.105800,0.197000,0.197000,-10.098000,-0.000307,0.001621,-0.006641
1764077384860342101,2025-11-25 18:59:44.859,-1.049000,1.404000,145.219000,-0.027500,-0.319700,0.112000,0.256000,0.179000,-10.119000,-0.000319,0.001946,-0.007352
1764077384885357971,2025-11-25 18:59:44.884,-1.050000,1.406000,145.206000,-0.025800,-0.325400,0.113100,0.234000,0.179000,-10.094000,0.000208,0.001508,-0.006876
1764077384910390879,2025-11-25 18:59:44.909,-1.049000,1.405000,145.196000,-0.026700,-0.324400,0.114100,0.267000,0.173000,-10.112000,0.000943,0.000760,-0.006822
1764077384935491101,2025-11-25 18:59:44.934,-1.049000,1.407000,145.185000,-0.026700,-0.323500,0.115100,0.279000,0.181000,-10.118000,0.000097,0.000938,-0.007444
1764077384960102045,2025-11-25 18:59:44.958,-1.049000,1.409000,145.175000,-0.029300,-0.324400,0.115000,0.251000,0.197000,-10.151000,0.001015,0.001611,-0.006776
1764077384985349934,2025-11-25 18:59:44.984,-1.050000,1.411000,145.164000,-0.027500,-0.320700,0.114000,0.256000,0.175000,-10.122000,0.000357,0.001555,-0.007272
1764077385010346564,2025-11-25 18:59:45.009,-1.049000,1.413000,145.154000,-0.027600,-0.326300,0.114100,0.238000,0.185000,-10.158000,-0.000354,0.002099,-0.006702
1764077385035419471,2025-11-25 18:59:45.034,-1.049000,1.412000,145.144000,-0.028400,-0.322500,0.109900,0.232000,0.172000,-10.132000,0.000102,0.002092,-0.007026
1764077385060262527,2025-11-25 18:59:45.059,-1.047000,1.416000,145.131000,-0.027600,-0.324400,0.116100,0.250000,0.164000,-10.106000,0.000788,0.001330,-0.007380
1764077385085962379,2025-11-25 18:59:45.084,-1.046000,1.417000,145.120000,-0.025800,-0.324400,0.117300,0.228000,0.181000,-10.111000,0.001179,0.000208,-0.006359
1764077385110638175,2025-11-25 18:59:45.109,-1.046000,1.419000,145.110000,-0.027500,-0.318800,0.113000,0.284000,0.177000,-10.138000,0.000247,0.001707,-0.007279
1764077385137821527,2025-11-25 18:59:45.136,-1.044000,1.423000,145.099000,-0.026600,-0.322600,0.116200,0.239000,0.180000,-10.107000,0.000940,0.000190,-0.007309
1764077385161093786,2025-11-25 18:59:45.159,-1.043000,1.423000,145.089000,-0.028500,-0.326200,0.119200,0.254000,0.170000,-10.140000,-0.000210,-0.000306,-0.007311
1764077385226769638,2025-11-25 18:59:45.224,-1.043000,1.424000,145.067000,-0.028500,-0.327200,0.118200,0.237000,0.176000,-10.121000,0.000367,-0.000554,-0.008235
1764077385245511434,2025-11-25 18:59:45.239,-1.042000,1.424000,145.058000,-0.026700,-0.325300,0.117200,0.260000,0.186000,-10.113000,-0.000044,-0.000595,-0.006889
1764077385265467378,2025-11-25 18:59:45.259,-1.042000,1.423000,145.047000,-0.027500,-0.321600,0.116100,0.256000,0.174000,-10.119000,0.000188,-0.000995,-0.007930
1764077385287272823,2025-11-25 18:59:45.285,-1.042000,1.422000,145.037000,-0.024100,-0.325400,0.115300,0.264000,0.181000,-10.124000,-0.000120,-0.001498,-0.007757
1764077385310593323,2025-11-25 18:59:45.309,-1.041000,1.422000,145.026000,-0.028300,-0.317900,0.115000,0.233000,0.190000,-10.132000,0.001112,-0.000152,-0.008179
1764077385336813730,2025-11-25 18:59:45.335,-1.042000,1.420000,145.016000,-0.027500,-0.325300,0.132700,0.258000,0.173000,-10.126000,0.000768,-0.000569,-0.007438
1764077385362692915,2025-11-25 18:59:45.361,-1.042000,1.419000,145.005000,-0.025800,-0.324400,0.120400,0.278000,0.181000,-10.137000,0.001190,-0.000844,-0.006767
1764077385388240045,2025-11-25 18:59:45.386,-1.042000,1.417000,144.994000,-0.026700,-0.324400,0.114100,0.243000,0.187000,-10.130000,0.000111,-0.001231,-0.007613
1764077385412622175,2025-11-25 18:59:45.411,-1.042000,1.415000,144.983000,-0.026700,-0.322600,0.114100,0.261000,0.158000,-10.118000,0.000067,-0.001866,-0.007522
1764077385441620027,2025-11-25 18:59:45.435,-1.043000,1.414000,144.972000,-0.026700,-0.324400,0.115100,0.254000,0.174000,-10.108000,-0.000777,-0.001437,-0.007200
1764077385462985415,2025-11-25 18:59:45.461,-1.043000,1.411000,144.962000,-0.025600,-0.316100,0.112000,0.231000,0.184000,-10.133000,-0.000783,-0.000216,-0.007016
1764077385487783397,2025-11-25 18:59:45.486,-1.043000,1.411000,144.951000,-0.028400,-0.321600,0.114000,0.261000,0.185000,-10.117000,-0.000515,-0.001673,-0.006533
1764077385512289767,2025-11-25 18:59:45.510,-1.044000,1.410000,144.940000,-0.026600,-0.320700,0.111000,0.228000,0.201000,-10.126000,-0.000915,-0.000295,-0.007136
1764077385536663323,2025-11-25 18:59:45.535,-1.045000,1.410000,144.931000,-0.026600,-0.319800,0.112000,0.283000,0.184000,-10.107000,-0.000184,-0.000498,-0.006914
1764077385560475138,2025-11-25 18:59:45.559,-1.045000,1.412000,144.920000,-0.025800,-0.324400,0.115200,0.256000,0.183000,-10.112000,-0.000041,-0.000147,-0.006308
1764077385585563063,2025-11-25 18:59:45.584,-1.046000,1.411000,144.909000,-0.025900,-0.327200,0.115200,0.251000,0.168000,-10.121000,0.000361,0.000997,-0.007056
1764077385610613045,2025-11-25 18:59:45.609,-1.046000,1.412000,144.897000,-0.025800,-0.324400,0.116200,0.236000,0.214000,-10.117000,0.000353,0.000423,-0.007055
1764077385646285267,2025-11-25 18:59:45.637,-1.048000,1.411000,144.886000,-0.024900,-0.321700,0.114200,0.243000,0.192000,-10.145000,-0.001649,0.001012,-0.006760
1764077385660717619,2025-11-25 18:59:45.659,-1.048000,1.412000,144.876000,-0.024900,-0.323500,0.111100,0.281000,0.187000,-10.135000,-0.000938,0.000640,-0.005897
1764077385685963471,2025-11-25 18:59:45.684,-1.049000,1.413000,144.867000,-0.027600,-0.325300,0.114100,0.217000,0.184000,-10.139000,0.000096,0.000316,-0.007572
1764077385723485674,2025-11-25 18:59:45.722,-1.050000,1.413000,144.856000,-0.026600,-0.321600,0.115100,0.268000,0.198000,-10.132000,0.000269,0.000715,-0.007236
1764077385749055878,2025-11-25 18:59:45.747,-1.050000,1.415000,144.846000,-0.027600,-0.323500,0.111000,0.245000,0.167000,-10.062000,0.000507,0.000644,-0.007478
1764077385761550841,2025-11-25 18:59:45.760,-1.050000,1.415000,144.838000,-0.024900,-0.321700,0.114200,0.255000,0.189000,-10.096000,-0.000103,0.000590,-0.006481
1764077385785566156,2025-11-25 18:59:45.784,-1.049000,1.418000,144.827000,-0.024900,-0.320700,0.109000,0.278000,0.175000,-10.159000,0.000202,0.000772,-0.006617
1764077385811919082,2025-11-25 18:59:45.810,-1.049000,1.419000,144.817000,-0.024800,-0.319800,0.112100,0.229000,0.177000,-10.143000,0.000772,-0.000386,-0.007916
1764077385835629378,2025-11-25 18:59:45.834,-1.049000,1.419000,144.807000,-0.024900,-0.323500,0.114200,0.270000,0.165000,-10.093000,0.000615,0.000361,-0.007525
1764077385861586804,2025-11-25 18:59:45.860,-1.048000,1.420000,144.797000,-0.027600,-0.327200,0.114100,0.277000,0.183000,-10.136000,0.000199,-0.000422,-0.006331
1764077385885564860,2025-11-25 18:59:45.884,-1.047000,1.419000,144.787000,-0.024800,-0.318900,0.118300,0.244000,0.190000,-10.162000,0.001017,-0.000335,-0.006981
1764077385911596934,2025-11-25 18:59:45.910,-1.047000,1.419000,144.777000,-0.024900,-0.324500,0.116300,0.288000,0.198000,-10.114000,0.001268,-0.000327,-0.007641
1764077385935295971,2025-11-25 18:59:45.934,-1.047000,1.419000,144.767000,-0.024900,-0.322600,0.115200,0.243000,0.209000,-10.129000,0.001123,-0.000220,-0.007597
1764077385962043730,2025-11-25 18:59:45.960,-1.047000,1.419000,144.757000,-0.024100,-0.326300,0.118400,0.259000,0.181000,-10.112000,0.000014,0.000323,-0.006685
1764077385986491397,2025-11-25 18:59:45.985,-1.047000,1.420000,144.745000,-0.025700,-0.320700,0.113100,0.239000,0.207000,-10.106000,0.000449,-0.000193,-0.006331
1764077386011352989,2025-11-25 18:59:46.010,-1.048000,1.417000,144.734000,-0.025800,-0.324400,0.117300,0.238000,0.188000,-10.109000,-0.000740,-0.001104,-0.006684
1764077386036680434,2025-11-25 18:59:46.035,-1.047000,1.418000,144.724000,-0.026700,-0.323500,0.111000,0.279000,0.171000,-10.151000,0.000408,-0.000113,-0.005848
1764077386061360730,2025-11-25 18:59:46.059,-1.047000,1.417000,144.713000,-0.024000,-0.322600,0.113200,0.240000,0.196000,-10.132000,0.000114,-0.000603,-0.006755
1764077386086474230,2025-11-25 18:59:46.085,-1.047000,1.416000,144.702000,-0.026700,-0.322600,0.115100,0.287000,0.188000,-10.137000,-0.000706,-0.000981,-0.007051
1764077386112032026,2025-11-25 18:59:46.110,-1.047000,1.416000,144.692000,-0.024800,-0.319800,0.115200,0.247000,0.178000,-10.098000,-0.000011,-0.001355,-0.006743
1764077386135667267,2025-11-25 18:59:46.134,-1.047000,1.413000,144.683000,-0.023200,-0.325400,0.111200,0.274000,0.190000,-10.114000,-0.000184,-0.000871,-0.005995
1764077386161399711,2025-11-25 18:59:46.159,-1.047000,1.414000,144.673000,-0.024800,-0.320700,0.118300,0.289000,0.187000,-10.149000,-0.000210,-0.000418,-0.006209
1764077386224068545,2025-11-25 18:59:46.222,-1.047000,1.413000,144.664000,-0.025800,-0.322600,0.117200,0.232000,0.222000,-10.138000,-0.000818,-0.000040,-0.005875
1764077386234675341,2025-11-25 18:59:46.232,-1.048000,1.413000,144.655000,-0.023900,-0.317000,0.112100,0.270000,0.204000,-10.101000,0.000132,0.000283,-0.006741
1764077386598608915,2025-11-25 18:59:46.366,-1.046000,1.415000,144.593000,-0.024000,-0.322600,0.115300,0.240000,0.170000,-10.115000,0.000374,0.000456,-0.006154
1764077386598744767,2025-11-25 18:59:46.385,-1.046000,1.415000,144.582000,-0.024100,-0.326300,0.116300,0.235000,0.183000,-10.137000,0.000304,0.002577,-0.006366
1764077386598791933,2025-11-25 18:59:46.410,-1.046000,1.417000,144.572000,-0.024900,-0.322600,0.111100,0.253000,0.205000,-10.134000,-0.000816,0.001047,-0.007867
1764077386598830804,2025-11-25 18:59:46.434,-1.047000,1.418000,144.562000,-0.024000,-0.321700,0.112200,0.226000,0.180000,-10.078000,0.000633,0.001514,-0.006175
1764077386598867692,2025-11-25 18:59:46.460,-1.047000,1.421000,144.552000,-0.023100,-0.321700,0.114300,0.267000,0.188000,-10.134000,0.000317,-0.000040,-0.007460
1764077386598903989,2025-11-25 18:59:46.487,-1.047000,1.422000,144.542000,-0.025700,-0.318900,0.113100,0.215000,0.192000,-10.108000,0.000033,0.000826,-0.006860
1764077386598939748,2025-11-25 18:59:46.509,-1.047000,1.425000,144.532000,-0.024000,-0.320800,0.114200,0.287000,0.167000,-10.115000,0.000632,0.001560,-0.007304
1764077386598975896,2025-11-25 18:59:46.534,-1.048000,1.429000,144.521000,-0.023200,-0.324500,0.115300,0.249000,0.193000,-10.143000,-0.000072,0.003308,-0.006319
1764077386599012211,2025-11-25 18:59:46.561,-1.048000,1.430000,144.511000,-0.024000,-0.320700,0.116300,0.261000,0.179000,-10.121000,0.000988,0.001324,-0.006959
1764077386599050230,2025-11-25 18:59:46.584,-1.049000,1.433000,144.501000,-0.024100,-0.326300,0.114300,0.288000,0.189000,-10.130000,-0.000002,0.002055,-0.007456
1764077386615319526,2025-11-25 18:59:46.613,-1.050000,1.435000,144.491000,-0.024000,-0.322600,0.112200,0.222000,0.207000,-10.102000,-0.000084,0.001210,-0.007247
1764077386706454841,2025-11-25 18:59:46.698,-1.052000,1.436000,144.482000,-0.024000,-0.322600,0.115300,0.257000,0.188000,-10.158000,-0.000730,-0.000084,-0.004875
1764077386766204026,2025-11-25 18:59:46.756,-1.052000,1.438000,144.474000,-0.024100,-0.326300,0.117400,0.236000,0.193000,-10.175000,-0.000264,0.000324,-0.006476
1764077386841046748,2025-11-25 18:59:46.835,-1.052000,1.436000,144.463000,-0.023100,-0.321700,0.112200,0.256000,0.180000,-10.170000,0.000361,-0.000043,-0.006837
1764077386895090729,2025-11-25 18:59:46.881,-1.053000,1.438000,144.454000,-0.022400,-0.327300,0.111300,0.266000,0.190000,-10.088000,0.000084,0.000916,-0.007197
1764077386923381785,2025-11-25 18:59:46.922,-1.053000,1.436000,144.445000,-0.022200,-0.322600,0.115400,0.237000,0.173000,-10.132000,-0.000817,-0.000424,-0.006896
1764077386943092785,2025-11-25 18:59:46.941,-1.054000,1.435000,144.435000,-0.024000,-0.323600,0.114200,0.262000,0.199000,-10.142000,-0.000064,-0.001412,-0.006783
1764077386970944044,2025-11-25 18:59:46.969,-1.055000,1.433000,144.426000,-0.024900,-0.322600,0.112100,0.218000,0.198000,-10.119000,-0.000123,-0.000604,-0.006990
1764077386999383452,2025-11-25 18:59:46.990,-1.055000,1.430000,144.418000,-0.021400,-0.322700,0.107100,0.217000,0.161000,-10.133000,-0.000497,-0.001108,-0.005596
1764077387012040470,2025-11-25 18:59:47.009,-1.053000,1.429000,144.408000,-0.023100,-0.323500,0.132900,0.262000,0.175000,-10.129000,-0.000055,-0.001825,-0.007927
1764077387023995026,2025-11-25 18:59:47.022,-1.053000,1.428000,144.399000,-0.022200,-0.322700,0.113300,0.245000,0.169000,-10.127000,0.000593,-0.001482,-0.005985
1764077387034619581,2025-11-25 18:59:47.033,-1.052000,1.426000,144.389000,-0.023900,-0.318900,0.115200,0.285000,0.176000,-10.125000,0.000340,-0.002091,-0.006464
1764077387045449211,2025-11-25 18:59:47.043,-1.052000,1.423000,144.379000,-0.023200,-0.326400,0.110200,0.248000,0.198000,-10.118000,-0.001014,-0.001408,-0.006671
1764077387056031137,2025-11-25 18:59:47.054,-1.053000,1.420000,144.370000,-0.023000,-0.316100,0.112200,0.255000,0.162000,-10.134000,0.000851,-0.001405,-0.005339
1764077387065881451,2025-11-25 18:59:47.063,-1.051000,1.420000,144.359000,-0.023100,-0.322600,0.113200,0.269000,0.170000,-10.139000,0.000526,-0.001986,-0.007061
1764077387076362359,2025-11-25 18:59:47.075,-1.051000,1.416000,144.349000,-0.022300,-0.327300,0.114400,0.236000,0.182000,-10.122000,-0.000691,-0.002817,-0.006866
1764077387087211470,2025-11-25 18:59:47.086,-1.050000,1.415000,144.340000,-0.022300,-0.325400,0.115400,0.283000,0.166000,-10.115000,0.000607,-0.000317,-0.006661
1764077387097353303,2025-11-25 18:59:47.095,-1.050000,1.414000,144.331000,-0.022200,-0.320800,0.111200,0.231000,0.199000,-10.147000,0.000605,-0.000469,-0.005468
1764077387105919026,2025-11-25 18:59:47.104,-1.048000,1.411000,144.321000,-0.024900,-0.320700,0.114200,0.260000,0.182000,-10.114000,0.000189,-0.001356,-0.006008
1764077387119125896,2025-11-25 18:59:47.117,-1.047000,1.411000,144.312000,-0.023100,-0.319800,0.114300,0.225000,0.181000,-10.134000,0.000361,0.000389,-0.006320
1764077387130063229,2025-11-25 18:59:47.127,-1.047000,1.409000,144.303000,-0.023200,-0.326400,0.113300,0.222000,0.194000,-10.131000,0.000335,0.000404,-0.006064
1764077387138896229,2025-11-25 18:59:47.137,-1.046000,1.409000,144.294000,-0.022200,-0.321700,0.118500,0.260000,0.164000,-10.165000,0.000383,-0.000064,-0.006243
1764077387160925266,2025-11-25 18:59:47.159,-1.044000,1.410000,144.286000,-0.022300,-0.324500,0.112300,0.227000,0.163000,-10.115000,0.000914,0.002030,-0.005493
1764077387225628896,2025-11-25 18:59:47.224,-1.043000,1.413000,144.266000,-0.021400,-0.324500,0.117500,0.207000,0.179000,-10.115000,0.000572,0.001331,-0.006235
1764077387238236933,2025-11-25 18:59:47.236,-1.042000,1.412000,144.256000,-0.022300,-0.323600,0.116400,0.236000,0.171000,-10.097000,0.001166,0.001574,-0.006331
1764077387263244025,2025-11-25 18:59:47.261,-1.041000,1.415000,144.246000,-0.024100,-0.327300,0.120500,0.259000,0.152000,-10.140000,-0.000069,0.002483,-0.005328
1764077387285918248,2025-11-25 18:59:47.284,-1.041000,1.417000,144.237000,-0.022200,-0.321700,0.114300,0.223000,0.186000,-10.112000,0.000261,0.001182,-0.006837
1764077387311093822,2025-11-25 18:59:47.309,-1.041000,1.419000,144.227000,-0.022300,-0.327300,0.114400,0.291000,0.193000,-10.109000,0.000447,0.001634,-0.006137
1764077387335978877,2025-11-25 18:59:47.334,-1.040000,1.422000,144.218000,-0.023100,-0.320800,0.117400,0.256000,0.189000,-10.149000,0.000048,0.003220,-0.005091
1764077387360865785,2025-11-25 18:59:47.359,-1.040000,1.424000,144.207000,-0.021200,-0.317100,0.118500,0.251000,0.172000,-10.107000,0.000281,0.001899,-0.006350
1764077387385826581,2025-11-25 18:59:47.384,-1.040000,1.428000,144.198000,-0.022300,-0.328200,0.118500,0.265000,0.163000,-10.129000,-0.000877,0.001090,-0.005930
1764077387413463303,2025-11-25 18:59:47.412,-1.039000,1.430000,144.188000,-0.022300,-0.325500,0.113300,0.234000,0.168000,-10.129000,-0.000613,0.001693,-0.007008
1764077387435846673,2025-11-25 18:59:47.434,-1.039000,1.432000,144.178000,-0.021200,-0.317100,0.115400,0.269000,0.163000,-10.122000,-0.001004,0.001725,-0.006340
1764077387460927173,2025-11-25 18:59:47.459,-1.040000,1.434000,144.170000,-0.021400,-0.324500,0.114400,0.256000,0.185000,-10.103000,-0.000753,-0.000379,-0.005538
1764077387485836044,2025-11-25 18:59:47.484,-1.043000,1.434000,144.161000,-0.021400,-0.325500,0.116500,0.253000,0.203000,-10.124000,-0.000583,0.001363,-0.006641
1764077387510891136,2025-11-25 18:59:47.509,-1.042000,1.437000,144.152000,-0.023100,-0.323600,0.115300,0.264000,0.175000,-10.128000,-0.000720,0.000744,-0.006337
1764077387535799803,2025-11-25 18:59:47.534,-1.044000,1.437000,144.142000,-0.021400,-0.322700,0.110200,0.264000,0.161000,-10.112000,-0.001422,0.000985,-0.006132
1764077387560897673,2025-11-25 18:59:47.559,-1.045000,1.439000,144.133000,-0.021400,-0.322700,0.113400,0.270000,0.173000,-10.120000,-0.001250,0.000482,-0.006173
1764077387585836210,2025-11-25 18:59:47.584,-1.047000,1.440000,144.124000,-0.022300,-0.322700,0.112300,0.252000,0.182000,-10.120000,-0.001712,-0.000237,-0.007205
1764077387611023322,2025-11-25 18:59:47.609,-1.049000,1.438000,144.116000,-0.021400,-0.323600,0.112300,0.255000,0.194000,-10.145000,-0.000548,0.000383,-0.007102
1764077387636071470,2025-11-25 18:59:47.634,-1.049000,1.438000,144.107000,-0.024900,-0.323500,0.115200,0.271000,0.174000,-10.104000,-0.000936,-0.001498,-0.005099
1764077387660886747,2025-11-25 18:59:47.659,-1.050000,1.435000,144.098000,-0.021500,-0.326400,0.109200,0.232000,0.192000,-10.136000,0.000150,-0.001423,-0.006752
1764077387685973562,2025-11-25 18:59:47.684,-1.050000,1.432000,144.090000,-0.020500,-0.324600,0.113400,0.284000,0.184000,-10.145000,-0.000243,-0.002166,-0.005394
1764077387710870507,2025-11-25 18:59:47.709,-1.051000,1.430000,144.081000,-0.021300,-0.322700,0.117500,0.248000,0.189000,-10.146000,-0.000507,-0.001210,-0.006863
1764077387735849173,2025-11-25 18:59:47.734,-1.053000,1.428000,144.073000,-0.023200,-0.326400,0.116400,0.292000,0.175000,-10.164000,-0.000810,-0.000574,-0.004910
1764077387760656284,2025-11-25 18:59:47.759,-1.052000,1.428000,144.066000,-0.020400,-0.321800,0.116500,0.262000,0.185000,-10.164000,-0.000262,-0.002072,-0.004428
1764077387785797210,2025-11-25 18:59:47.784,-1.054000,1.423000,144.055000,-0.020500,-0.322700,0.114400,0.240000,0.209000,-10.152000,0.000199,-0.001910,-0.005960
1764077387810831395,2025-11-25 18:59:47.809,-1.053000,1.421000,144.046000,-0.022300,-0.324500,0.114400,0.253000,0.175000,-10.116000,0.000511,-0.001064,-0.006895
1764077387835800303,2025-11-25 18:59:47.834,-1.053000,1.418000,144.039000,-0.019500,-0.318000,0.114400,0.219000,0.196000,-10.108000,0.000214,-0.000290,-0.005301
1764077387863791821,2025-11-25 18:59:47.862,-1.053000,1.416000,144.030000,-0.021400,-0.323600,0.113400,0.281000,0.185000,-10.125000,-0.000055,-0.000462,-0.005117
1764077387895228636,2025-11-25 18:59:47.893,-1.052000,1.415000,144.022000,-0.019600,-0.324600,0.112400,0.216000,0.209000,-10.095000,-0.000476,-0.000679,-0.006816
1764077387940362951,2025-11-25 18:59:47.923,-1.052000,1.413000,144.013000,-0.023200,-0.324500,0.114300,0.252000,0.190000,-10.097000,-0.000374,-0.001141,-0.006137
1764077387952587969,2025-11-25 18:59:47.951,-1.051000,1.414000,144.004000,-0.020400,-0.319900,0.111300,0.264000,0.175000,-10.114000,0.000450,0.000115,-0.005997
1764077387968330377,2025-11-25 18:59:47.966,-1.050000,1.411000,143.994000,-0.019600,-0.321800,0.112400,0.218000,0.184000,-10.102000,0.001580,0.000003,-0.004739
1764077387994494081,2025-11-25 18:59:47.992,-1.050000,1.410000,143.986000,-0.020400,-0.321700,0.116500,0.264000,0.166000,-10.147000,0.000668,-0.001702,-0.005254
1764077388031346895,2025-11-25 18:59:48.029,-1.048000,1.411000,143.977000,-0.021500,-0.326400,0.111300,0.238000,0.191000,-10.081000,-0.000093,0.001479,-0.006216
1764077388072108136,2025-11-25 18:59:48.056,-1.048000,1.410000,143.969000,-0.021300,-0.321700,0.113300,0.246000,0.190000,-10.117000,0.000388,0.000018,-0.006352
1764077388095301025,2025-11-25 18:59:48.093,-1.046000,1.411000,143.959000,-0.021300,-0.318900,0.116400,0.252000,0.179000,-10.113000,0.001220,0.001158,-0.006314
1764077388106860655,2025-11-25 18:59:48.105,-1.044000,1.411000,143.951000,-0.022300,-0.325500,0.112300,0.217000,0.194000,-10.160000,0.001432,0.001182,-0.006098
1764077388119371803,2025-11-25 18:59:48.116,-1.044000,1.411000,143.943000,-0.021400,-0.326400,0.117500,0.253000,0.182000,-10.130000,0.000738,0.000570,-0.006242
1764077388147439432,2025-11-25 18:59:48.146,-1.042000,1.414000,143.934000,-0.021400,-0.322700,0.112300,0.241000,0.186000,-10.097000,0.001306,0.002838,-0.004904
1764077388173587636,2025-11-25 18:59:48.169,-1.042000,1.415000,143.925000,-0.018700,-0.322700,0.111400,0.250000,0.197000,-10.106000,0.000731,0.001817,-0.006128
1764077388269224525,2025-11-25 18:59:48.265,-1.041000,1.420000,143.909000,-0.021500,-0.327300,0.111300,0.233000,0.190000,-10.123000,0.000007,0.000367,-0.006038
1764077388285701006,2025-11-25 18:59:48.283,-1.043000,1.422000,143.901000,-0.020500,-0.323600,0.116500,0.259000,0.194000,-10.113000,-0.000474,0.001909,-0.005752
1764077388302460154,2025-11-25 18:59:48.301,-1.043000,1.424000,143.892000,-0.020600,-0.328300,0.113400,0.222000,0.190000,-10.104000,-0.000367,0.002013,-0.005873
1764077388310918469,2025-11-25 18:59:48.309,-1.043000,1.426000,143.883000,-0.019600,-0.324600,0.113500,0.246000,0.179000,-10.141000,0.000449,0.001189,-0.007511
1764077388322906728,2025-11-25 18:59:48.320,-1.043000,1.429000,143.874000,-0.019600,-0.325500,0.116600,0.266000,0.168000,-10.141000,0.000967,0.001553,-0.005513
1764077388336225284,2025-11-25 18:59:48.334,-1.044000,1.430000,143.866000,-0.019700,-0.327400,0.116600,0.239000,0.177000,-10.150000,-0.000877,0.000597,-0.006217
1764077388364670710,2025-11-25 18:59:48.363,-1.044000,1.432000,143.860000,-0.020600,-0.329200,0.116600,0.265000,0.189000,-10.119000,-0.001055,0.000415,-0.005543
1764077388390449525,2025-11-25 18:59:48.388,-1.045000,1.433000,143.851000,-0.017700,-0.318100,0.117600,0.255000,0.199000,-10.138000,-0.000455,-0.000365,-0.006592
1764077388414130821,2025-11-25 18:59:48.412,-1.046000,1.434000,143.843000,-0.021400,-0.326400,0.116500,0.282000,0.154000,-10.121000,-0.000264,0.001496,-0.006209
1764077388437987136,2025-11-25 18:59:48.436,-1.046000,1.435000,143.835000,-0.017800,-0.323700,0.114600,0.255000,0.178000,-10.097000,-0.000466,0.000541,-0.006058
1764077388463454284,2025-11-25 18:59:48.461,-1.047000,1.434000,143.827000,-0.019700,-0.326400,0.117600,0.252000,0.184000,-10.137000,0.000067,-0.000372,-0.005262
1764077388487118191,2025-11-25 18:59:48.485,-1.047000,1.435000,143.819000,-0.021400,-0.324500,0.115400,0.290000,0.191000,-10.150000,-0.000053,-0.000288,-0.004953
1764077388514343358,2025-11-25 18:59:48.512,-1.047000,1.434000,143.810000,-0.020500,-0.324600,0.114500,0.237000,0.188000,-10.152000,-0.000019,-0.001545,-0.006975
1764077388538512451,2025-11-25 18:59:48.537,-1.049000,1.433000,143.802000,-0.020500,-0.325500,0.112400,0.266000,0.192000,-10.128000,-0.000417,0.000600,-0.006271
1764077388563908617,2025-11-25 18:59:48.562,-1.049000,1.433000,143.792000,-0.020500,-0.321800,0.114400,0.237000,0.200000,-10.130000,0.000217,0.000147,-0.004844
1764077388588653228,2025-11-25 18:59:48.587,-1.051000,1.429000,143.784000,-0.020500,-0.324600,0.113400,0.246000,0.197000,-10.133000,-0.002417,-0.001786,-0.006068
1764077388613748543,2025-11-25 18:59:48.612,-1.052000,1.429000,143.775000,-0.018700,-0.319900,0.111400,0.262000,0.167000,-10.117000,-0.000158,-0.000578,-0.007007
1764077388640534395,2025-11-25 18:59:48.637,-1.053000,1.425000,143.765000,-0.020500,-0.325500,0.115500,0.220000,0.205000,-10.147000,-0.000411,-0.000343,-0.005563
1764077388663030710,2025-11-25 18:59:48.661,-1.053000,1.425000,143.756000,-0.019600,-0.324600,0.113500,0.263000,0.164000,-10.150000,0.001337,-0.000434,-0.005747
1764077388688711099,2025-11-25 18:59:48.687,-1.053000,1.424000,143.747000,-0.017800,-0.321800,0.118700,0.258000,0.213000,-10.135000,-0.000285,-0.001482,-0.005577
1764077388713558284,2025-11-25 18:59:48.712,-1.053000,1.421000,143.739000,-0.020400,-0.319900,0.115400,0.240000,0.187000,-10.138000,0.000934,0.000399,-0.005777
1764077388737960543,2025-11-25 18:59:48.736,-1.052000,1.421000,143.731000,-0.019600,-0.323600,0.113500,0.254000,0.171000,-10.142000,0.001164,0.001192,-0.005867
1764077388765004099,2025-11-25 18:59:48.763,-1.051000,1.420000,143.722000,-0.020600,-0.327400,0.114500,0.228000,0.198000,-10.058000,0.000977,0.000865,-0.005463
1764077388790216599,2025-11-25 18:59:48.788,-1.051000,1.420000,143.714000,-0.018700,-0.320900,0.111400,0.270000,0.171000,-10.101000,-0.000409,-0.000373,-0.006091
1764077388814917524,2025-11-25 18:59:48.813,-1.050000,1.420000,143.706000,-0.019500,-0.323600,0.127900,0.252000,0.185000,-10.100000,0.000924,-0.000818,-0.005955
1764077388839534376,2025-11-25 18:59:48.837,-1.051000,1.418000,143.699000,-0.020600,-0.324600,0.106200,0.262000,0.179000,-10.117000,0.000910,-0.001012,-0.004713
1764077388867537969,2025-11-25 18:59:48.863,-1.049000,1.419000,143.690000,-0.019700,-0.325500,0.114500,0.245000,0.184000,-10.121000,0.000381,-0.001000,-0.005807
1764077388886602599,2025-11-25 18:59:48.885,-1.048000,1.418000,143.683000,-0.018800,-0.324600,0.113500,0.254000,0.179000,-10.102000,0.000673,0.001177,-0.004614
1764077388912696802,2025-11-25 18:59:48.911,-1.048000,1.419000,143.677000,-0.021400,-0.322700,0.114400,0.279000,0.181000,-10.125000,-0.000433,0.000483,-0.005080
1764077388939470024,2025-11-25 18:59:48.937,-1.047000,1.418000,143.670000,-0.018800,-0.325500,0.114600,0.217000,0.199000,-10.100000,0.000025,0.000437,-0.004638
1764077388964427228,2025-11-25 18:59:48.963,-1.046000,1.418000,143.661000,-0.019700,-0.325500,0.114500,0.263000,0.189000,-10.122000,0.000978,0.001354,-0.005527
1764077388987451728,2025-11-25 18:59:48.986,-1.045000,1.421000,143.655000,-0.020500,-0.324600,0.117600,0.254000,0.188000,-10.088000,0.000846,0.001220,-0.006143
1764077389015337598,2025-11-25 18:59:49.013,-1.044000,1.421000,143.647000,-0.017900,-0.324600,0.114600,0.238000,0.197000,-10.099000,0.000487,0.000765,-0.005204
1764077389038410339,2025-11-25 18:59:49.037,-1.044000,1.424000,143.639000,-0.020500,-0.326400,0.116500,0.270000,0.190000,-10.099000,0.000535,0.000236,-0.007181
1764077389062720191,2025-11-25 18:59:49.061,-1.044000,1.423000,143.633000,-0.017900,-0.324600,0.112500,0.238000,0.190000,-10.122000,0.001163,0.001050,-0.005329
1764077389089059247,2025-11-25 18:59:49.087,-1.043000,1.424000,143.625000,-0.017900,-0.325600,0.110500,0.251000,0.176000,-10.103000,0.000043,0.001098,-0.006028
1764077389116852043,2025-11-25 18:59:49.115,-1.042000,1.426000,143.617000,-0.017000,-0.323700,0.115700,0.264000,0.166000,-10.131000,0.000907,0.001049,-0.005468
1764077389138549450,2025-11-25 18:59:49.137,-1.042000,1.426000,143.610000,-0.017800,-0.319900,0.115600,0.245000,0.200000,-10.090000,0.000020,0.001116,-0.006273
1764077389162849006,2025-11-25 18:59:49.161,-1.042000,1.426000,143.603000,-0.017000,-0.323700,0.113600,0.275000,0.154000,-10.134000,0.000333,0.000500,-0.005011
1764077389230001598,2025-11-25 18:59:49.228,-1.043000,1.427000,143.586000,-0.018800,-0.324600,0.114500,0.267000,0.181000,-10.092000,-0.000836,0.000517,-0.004357
1764077389238264321,2025-11-25 18:59:49.237,-1.043000,1.428000,143.579000,-0.018800,-0.325500,0.116600,0.219000,0.178000,-10.121000,-0.000596,0.001171,-0.004908
1764077389264961450,2025-11-25 18:59:49.263,-1.044000,1.427000,143.570000,-0.017900,-0.324600,0.115600,0.246000,0.178000,-10.125000,0.000719,-0.000081,-0.006432
1764077389288807913,2025-11-25 18:59:49.287,-1.045000,1.428000,143.561000,-0.018700,-0.324600,0.115600,0.276000,0.158000,-10.118000,-0.001053,0.000362,-0.005622
1764077389311909191,2025-11-25 18:59:49.310,-1.046000,1.428000,143.551000,-0.019600,-0.325500,0.117600,0.225000,0.188000,-10.145000,-0.000993,-0.000698,-0.005617
1764077389338943172,2025-11-25 18:59:49.337,-1.047000,1.428000,143.545000,-0.018000,-0.329300,0.117700,0.261000,0.180000,-10.140000,-0.000944,0.000826,-0.005713
1764077389362755320,2025-11-25 18:59:49.361,-1.048000,1.429000,143.537000,-0.018800,-0.326500,0.113500,0.250000,0.180000,-10.122000,-0.000525,0.000081,-0.005654
1764077389387553820,2025-11-25 18:59:49.386,-1.048000,1.428000,143.528000,-0.018800,-0.328300,0.116600,0.264000,0.165000,-10.145000,-0.000514,-0.000292,-0.005914
1764077389413641765,2025-11-25 18:59:49.412,-1.048000,1.429000,143.520000,-0.016000,-0.320900,0.115700,0.281000,0.161000,-10.127000,-0.000634,0.000353,-0.005942
1764077389437495580,2025-11-25 18:59:49.435,-1.049000,1.428000,143.512000,-0.017000,-0.327400,0.114700,0.232000,0.188000,-10.119000,-0.001067,-0.000191,-0.005358
1764077389463413783,2025-11-25 18:59:49.462,-1.051000,1.429000,143.505000,-0.018000,-0.328400,0.112600,0.271000,0.157000,-10.143000,-0.000795,0.000890,-0.006142
1764077389489084691,2025-11-25 18:59:49.487,-1.051000,1.429000,143.497000,-0.017000,-0.322800,0.113600,0.239000,0.181000,-10.128000,-0.000271,0.000417,-0.006016
1764077389511865413,2025-11-25 18:59:49.510,-1.052000,1.428000,143.488000,-0.017800,-0.322700,0.116700,0.258000,0.187000,-10.087000,-0.000495,0.000564,-0.005625
1764077389537545969,2025-11-25 18:59:49.536,-1.051000,1.429000,143.480000,-0.016800,-0.316200,0.112500,0.249000,0.176000,-10.086000,-0.000392,-0.000092,-0.005538
1764077389564485802,2025-11-25 18:59:49.563,-1.052000,1.428000,143.471000,-0.019700,-0.324600,0.110400,0.221000,0.203000,-10.130000,-0.000067,-0.000949,-0.004421
1764077389588484820,2025-11-25 18:59:49.587,-1.053000,1.428000,143.463000,-0.016900,-0.319000,0.116700,0.271000,0.198000,-10.096000,-0.000022,0.000017,-0.004481
1764077389612081820,2025-11-25 18:59:49.610,-1.054000,1.427000,143.456000,-0.017000,-0.325600,0.115700,0.223000,0.201000,-10.117000,-0.000186,0.001157,-0.004566
1764077389638541857,2025-11-25 18:59:49.637,-1.053000,1.426000,143.448000,-0.017800,-0.322700,0.116700,0.260000,0.185000,-10.119000,-0.000184,-0.000569,-0.005290
1764077389663956320,2025-11-25 18:59:49.662,-1.052000,1.425000,143.441000,-0.017800,-0.320000,0.114600,0.234000,0.184000,-10.141000,0.000208,-0.000873,-0.004931
1764077389687354524,2025-11-25 18:59:49.686,-1.052000,1.423000,143.434000,-0.017900,-0.325500,0.116700,0.220000,0.187000,-10.121000,0.001128,-0.000422,-0.005314
1764077389711012857,2025-11-25 18:59:49.709,-1.053000,1.424000,143.427000,-0.017900,-0.324600,0.114600,0.263000,0.194000,-10.121000,-0.000588,0.000549,-0.004795
1764077389737751061,2025-11-25 18:59:49.736,-1.053000,1.422000,143.420000,-0.018800,-0.324600,0.110400,0.234000,0.200000,-10.099000,0.000137,-0.000108,-0.005249
1764077389763384154,2025-11-25 18:59:49.762,-1.054000,1.421000,143.415000,-0.017900,-0.325600,0.108400,0.264000,0.159000,-10.104000,-0.000690,-0.000593,-0.004769
1764077389789534005,2025-11-25 18:59:49.788,-1.052000,1.422000,143.408000,-0.017900,-0.323700,0.112500,0.251000,0.197000,-10.148000,-0.000546,-0.000453,-0.005922
1764077389812653005,2025-11-25 18:59:49.811,-1.053000,1.419000,143.400000,-0.017800,-0.322800,0.114600,0.226000,0.192000,-10.102000,-0.000327,-0.000370,-0.005246
1764077389837477228,2025-11-25 18:59:49.835,-1.051000,1.419000,143.393000,-0.016100,-0.321900,0.113600,0.273000,0.174000,-10.151000,0.002045,-0.001794,-0.004795
1764077389862590135,2025-11-25 18:59:49.861,-1.050000,1.418000,143.386000,-0.017800,-0.322800,0.114600,0.231000,0.188000,-10.174000,0.000954,0.000232,-0.005146
1764077389887696783,2025-11-25 18:59:49.886,-1.049000,1.418000,143.378000,-0.017900,-0.325600,0.113600,0.265000,0.191000,-10.109000,-0.000050,-0.000208,-0.004544
1764077389911881820,2025-11-25 18:59:49.910,-1.048000,1.419000,143.370000,-0.017800,-0.323700,0.115600,0.247000,0.191000,-10.107000,0.000433,-0.000221,-0.006135
1764077389938451746,2025-11-25 18:59:49.937,-1.048000,1.419000,143.363000,-0.016900,-0.320000,0.117700,0.280000,0.197000,-10.111000,0.001157,0.000116,-0.004405
1764077389963549468,2025-11-25 18:59:49.962,-1.047000,1.421000,143.357000,-0.017800,-0.323700,0.116700,0.267000,0.171000,-10.120000,0.000918,-0.000236,-0.004907
1764077389988603357,2025-11-25 18:59:49.987,-1.046000,1.420000,143.351000,-0.017000,-0.326500,0.116700,0.237000,0.188000,-10.106000,0.000578,0.000487,-0.007044
1764077390013712450,2025-11-25 18:59:50.011,-1.045000,1.421000,143.343000,-0.016100,-0.325600,0.112600,0.279000,0.167000,-10.087000,0.001118,0.000392,-0.004192
1764077390036857987,2025-11-25 18:59:50.035,-1.045000,1.421000,143.335000,-0.017000,-0.323700,0.112600,0.243000,0.191000,-10.107000,0.000706,0.000142,-0.005440
1764077390063697987,2025-11-25 18:59:50.062,-1.047000,1.420000,143.326000,-0.017000,-0.326500,0.113600,0.275000,0.183000,-10.134000,0.000589,0.000521,-0.005885
1764077390088652172,2025-11-25 18:59:50.087,-1.045000,1.421000,143.320000,-0.015200,-0.323700,0.112700,0.253000,0.159000,-10.114000,0.000712,0.000044,-0.004888
1764077390113766746,2025-11-25 18:59:50.112,-1.044000,1.419000,143.313000,-0.017000,-0.323700,0.112600,0.235000,0.190000,-10.121000,0.000560,-0.000149,-0.004593
1764077390138377339,2025-11-25 18:59:50.137,-1.044000,1.420000,143.306000,-0.017000,-0.326500,0.116700,0.268000,0.197000,-10.175000,0.000527,0.001044,-0.004707
1764077390162592968,2025-11-25 18:59:50.161,-1.043000,1.421000,143.299000,-0.016000,-0.321900,0.114700,0.222000,0.199000,-10.114000,0.000603,0.000035,-0.005021
1764077390232241672,2025-11-25 18:59:50.231,-1.041000,1.424000,143.284000,-0.018000,-0.329300,0.113600,0.262000,0.177000,-10.130000,0.001047,-0.000146,-0.005189
1764077390240560375,2025-11-25 18:59:50.239,-1.042000,1.423000,143.277000,-0.016100,-0.324700,0.115700,0.249000,0.186000,-10.148000,0.000519,-0.000415,-0.005146
1764077390266766987,2025-11-25 18:59:50.265,-1.042000,1.423000,143.271000,-0.016200,-0.328400,0.115800,0.247000,0.174000,-10.113000,-0.000479,0.000782,-0.005570
1764077390287599524,2025-11-25 18:59:50.286,-1.042000,1.423000,143.264000,-0.016100,-0.325600,0.115700,0.244000,0.172000,-10.108000,-0.000410,0.001264,-0.004561
1764077390313549764,2025-11-25 18:59:50.312,-1.042000,1.424000,143.259000,-0.016100,-0.324600,0.116800,0.270000,0.156000,-10.115000,-0.000392,-0.000350,-0.003658
1764077390337934301,2025-11-25 18:59:50.336,-1.042000,1.425000,143.251000,-0.017000,-0.324600,0.117800,0.243000,0.187000,-10.114000,-0.000922,0.000845,-0.005639
1764077390363648950,2025-11-25 18:59:50.361,-1.042000,1.424000,143.246000,-0.014400,-0.326600,0.113800,0.263000,0.194000,-10.108000,0.000124,0.000423,-0.004950
1764077390387037949,2025-11-25 18:59:50.385,-1.043000,1.425000,143.238000,-0.016000,-0.320900,0.115700,0.279000,0.176000,-10.113000,0.000401,-0.000188,-0.004860
1764077390412352949,2025-11-25 18:59:50.411,-1.044000,1.426000,143.229000,-0.016100,-0.324700,0.112600,0.236000,0.188000,-10.152000,-0.000707,0.000412,-0.003546
1764077390438429764,2025-11-25 18:59:50.437,-1.044000,1.427000,143.223000,-0.017800,-0.322700,0.117700,0.263000,0.180000,-10.108000,-0.000147,0.001101,-0.005089
1764077390463378598,2025-11-25 18:59:50.462,-1.045000,1.428000,143.217000,-0.014300,-0.323800,0.116900,0.259000,0.175000,-10.119000,0.000016,-0.000551,-0.004415
1764077390489020524,2025-11-25 18:59:50.487,-1.045000,1.428000,143.210000,-0.017000,-0.325600,0.112600,0.239000,0.161000,-10.152000,-0.001098,0.001181,-0.004273
1764077390513252672,2025-11-25 18:59:50.511,-1.046000,1.428000,143.203000,-0.019700,-0.323700,0.106200,0.236000,0.191000,-10.133000,-0.000420,-0.000374,-0.004371
1764077390537787542,2025-11-25 18:59:50.536,-1.046000,1.427000,143.195000,-0.015200,-0.322800,0.105400,0.237000,0.205000,-10.127000,0.000617,0.000208,-0.005382
1764077390565201098,2025-11-25 18:59:50.563,-1.047000,1.428000,143.189000,-0.016100,-0.323700,0.111600,0.288000,0.194000,-10.121000,-0.000302,-0.000386,-0.004144
1764077390588705912,2025-11-25 18:59:50.587,-1.048000,1.428000,143.180000,-0.014400,-0.326600,0.114800,0.224000,0.187000,-10.143000,-0.000512,-0.000772,-0.005025
1764077390613241301,2025-11-25 18:59:50.611,-1.048000,1.426000,143.173000,-0.017800,-0.322800,0.114600,0.263000,0.202000,-10.113000,0.000293,-0.001391,-0.004930
1764077390640475264,2025-11-25 18:59:50.636,-1.048000,1.428000,143.167000,-0.017800,-0.323700,0.116700,0.243000,0.194000,-10.146000,0.000819,-0.000811,-0.005864
1764077390665176894,2025-11-25 18:59:50.663,-1.049000,1.426000,143.160000,-0.015300,-0.327500,0.113700,0.255000,0.179000,-10.115000,0.000532,-0.000226,-0.004696
1764077390690331931,2025-11-25 18:59:50.688,-1.049000,1.427000,143.152000,-0.016100,-0.322800,0.114700,0.302000,0.195000,-10.092000,-0.000066,-0.000268,-0.005297
1764077390713024116,2025-11-25 18:59:50.711,-1.049000,1.427000,143.143000,-0.015100,-0.318100,0.114700,0.237000,0.200000,-10.132000,-0.000135,-0.000350,-0.005433
1764077390737874727,2025-11-25 18:59:50.736,-1.050000,1.426000,143.134000,-0.015100,-0.319100,0.115700,0.254000,0.183000,-10.126000,-0.000433,-0.000777,-0.006053
1764077390763998468,2025-11-25 18:59:50.762,-1.049000,1.426000,143.127000,-0.014400,-0.326600,0.114800,0.222000,0.175000,-10.114000,-0.000298,-0.000146,-0.004238
1764077390789624894,2025-11-25 18:59:50.787,-1.049000,1.425000,143.118000,-0.015300,-0.327500,0.114800,0.249000,0.201000,-10.140000,0.000507,-0.000332,-0.005751
1764077390814629134,2025-11-25 18:59:50.813,-1.048000,1.427000,143.110000,-0.014300,-0.322800,0.112700,0.267000,0.185000,-10.143000,0.000732,-0.000158,-0.004974
1764077390838345616,2025-11-25 18:59:50.836,-1.047000,1.425000,143.103000,-0.014300,-0.323800,0.110600,0.239000,0.205000,-10.112000,0.000454,-0.000326,-0.004770
1764077390862999894,2025-11-25 18:59:50.861,-1.048000,1.425000,143.097000,-0.016000,-0.319100,0.113600,0.252000,0.187000,-10.106000,0.000615,0.000075,-0.003777
1764077390886693116,2025-11-25 18:59:50.885,-1.047000,1.426000,143.089000,-0.015200,-0.323700,0.114700,0.244000,0.216000,-10.125000,0.000162,-0.000071,-0.005644
1764077390912384357,2025-11-25 18:59:50.911,-1.047000,1.425000,143.083000,-0.017100,-0.327500,0.111600,0.266000,0.193000,-10.149000,-0.000325,-0.000460,-0.004755
1764077390939882801,2025-11-25 18:59:50.937,-1.046000,1.428000,143.076000,-0.017600,-0.310600,0.113500,0.278000,0.148000,-10.106000,0.001387,0.000887,-0.003604
1764077390962508727,2025-11-25 18:59:50.961,-1.045000,1.428000,143.070000,-0.016100,-0.325600,0.112600,0.230000,0.188000,-10.140000,0.000471,0.000351,-0.003801
1764077390990249375,2025-11-25 18:59:50.988,-1.045000,1.428000,143.063000,-0.017000,-0.324600,0.116700,0.269000,0.184000,-10.143000,0.000518,-0.000529,-0.004828
1764077391012892190,2025-11-25 18:59:51.011,-1.045000,1.429000,143.057000,-0.016100,-0.324700,0.115700,0.258000,0.186000,-10.107000,-0.000388,0.000443,-0.005349
1764077391038520653,2025-11-25 18:59:51.037,-1.045000,1.429000,143.050000,-0.017000,-0.323700,0.110500,0.249000,0.169000,-10.118000,0.000513,0.000618,-0.003760
1764077391062190468,2025-11-25 18:59:51.060,-1.044000,1.430000,143.044000,-0.016000,-0.322800,0.128100,0.268000,0.179000,-10.131000,0.000997,0.001000,-0.005106
1764077391088219560,2025-11-25 18:59:51.087,-1.046000,1.430000,143.036000,-0.016100,-0.324700,0.115700,0.236000,0.193000,-10.108000,-0.000619,-0.000522,-0.005782
1764077391113216468,2025-11-25 18:59:51.111,-1.045000,1.430000,143.030000,-0.013400,-0.323800,0.112800,0.278000,0.179000,-10.095000,0.000075,0.000510,-0.004882
1764077391137688282,2025-11-25 18:59:51.136,-1.046000,1.431000,143.022000,-0.013400,-0.321900,0.114800,0.224000,0.193000,-10.110000,0.000337,0.001360,-0.004222
1764077391165273986,2025-11-25 18:59:51.163,-1.047000,1.431000,143.017000,-0.015100,-0.319100,0.115700,0.264000,0.193000,-10.132000,-0.000238,0.000461,-0.003899
1764077391231061523,2025-11-25 18:59:51.229,-1.049000,1.433000,143.004000,-0.015100,-0.319100,0.116800,0.245000,0.206000,-10.163000,-0.000350,-0.000036,-0.003918
1764077391239360356,2025-11-25 18:59:51.238,-1.049000,1.434000,142.998000,-0.016000,-0.321900,0.115700,0.289000,0.175000,-10.141000,-0.000550,-0.000108,-0.004963
1764077391266217023,2025-11-25 18:59:51.264,-1.050000,1.434000,142.989000,-0.015300,-0.327500,0.113700,0.239000,0.218000,-10.104000,-0.000138,-0.000213,-0.004552
1764077391287267375,2025-11-25 18:59:51.285,-1.051000,1.434000,142.983000,-0.015200,-0.323700,0.118900,0.271000,0.191000,-10.142000,-0.000114,-0.000264,-0.003841
1764077391314515542,2025-11-25 18:59:51.312,-1.051000,1.434000,142.975000,-0.014400,-0.327500,0.117900,0.225000,0.190000,-10.128000,0.001004,0.000174,-0.004412
1764077391336661190,2025-11-25 18:59:51.335,-1.052000,1.432000,142.969000,-0.014400,-0.328400,0.114800,0.240000,0.204000,-10.127000,-0.000015,-0.000766,-0.005330
1764077391363424653,2025-11-25 18:59:51.362,-1.052000,1.432000,142.963000,-0.014400,-0.325600,0.115800,0.286000,0.183000,-10.121000,-0.000354,-0.000751,-0.005489
1764077391387637134,2025-11-25 18:59:51.386,-1.052000,1.431000,142.956000,-0.013500,-0.325600,0.119000,0.249000,0.182000,-10.083000,-0.001036,-0.000820,-0.004933
1764077391413356597,2025-11-25 18:59:51.411,-1.052000,1.430000,142.949000,-0.014300,-0.324700,0.115800,0.282000,0.173000,-10.154000,0.000141,-0.000309,-0.003928
1764077391437500875,2025-11-25 18:59:51.436,-1.052000,1.430000,142.943000,-0.016100,-0.324700,0.114700,0.256000,0.179000,-10.106000,-0.000222,-0.001914,-0.005007
1764077391464530708,2025-11-25 18:59:51.462,-1.053000,1.428000,142.937000,-0.013500,-0.328500,0.112800,0.268000,0.181000,-10.107000,-0.000385,-0.000365,-0.004511
1764077391487523708,2025-11-25 18:59:51.486,-1.053000,1.427000,142.929000,-0.013500,-0.325600,0.113800,0.253000,0.181000,-10.151000,0.000345,0.000009,-0.004929
1764077391513462060,2025-11-25 18:59:51.512,-1.054000,1.425000,142.923000,-0.014300,-0.321900,0.114800,0.219000,0.187000,-10.153000,-0.001038,-0.000208,-0.004691
1764077391537533856,2025-11-25 18:59:51.536,-1.053000,1.424000,142.916000,-0.016000,-0.320000,0.112600,0.262000,0.182000,-10.135000,0.000919,-0.000408,-0.004535
1764077391567521023,2025-11-25 18:59:51.565,-1.051000,1.422000,142.909000,-0.015200,-0.321900,0.116800,0.249000,0.196000,-10.144000,0.000002,-0.001016,-0.005752
1764077391587363541,2025-11-25 18:59:51.586,-1.051000,1.421000,142.903000,-0.015300,-0.324700,0.108500,0.248000,0.173000,-10.086000,0.000410,0.000593,-0.003705
1764077391613518689,2025-11-25 18:59:51.612,-1.050000,1.421000,142.897000,-0.012600,-0.325700,0.110800,0.243000,0.172000,-10.150000,0.000603,-0.000320,-0.005714
1764077391637258430,2025-11-25 18:59:51.635,-1.050000,1.420000,142.890000,-0.015200,-0.324700,0.111700,0.256000,0.180000,-10.128000,-0.000533,0.000157,-0.005015
1764077391661945356,2025-11-25 18:59:51.660,-1.049000,1.421000,142.884000,-0.014400,-0.327500,0.115900,0.246000,0.174000,-10.091000,0.001519,0.000009,-0.004751
1764077391689264671,2025-11-25 18:59:51.687,-1.046000,1.422000,142.877000,-0.016100,-0.322800,0.110600,0.238000,0.191000,-10.098000,0.001244,0.000464,-0.004478
1764077391713023560,2025-11-25 18:59:51.711,-1.046000,1.422000,142.870000,-0.013400,-0.321000,0.113800,0.244000,0.197000,-10.134000,0.000670,0.000784,-0.004323
1764077391738271893,2025-11-25 18:59:51.736,-1.046000,1.423000,142.862000,-0.013500,-0.325600,0.115900,0.254000,0.176000,-10.105000,0.000080,-0.001514,-0.006004
1764077391763967301,2025-11-25 18:59:51.762,-1.046000,1.423000,142.856000,-0.017800,-0.323700,0.115600,0.243000,0.176000,-10.126000,0.000149,0.000303,-0.004553
1764077391786867208,2025-11-25 18:59:51.785,-1.045000,1.424000,142.850000,-0.014300,-0.322800,0.112700,0.271000,0.189000,-10.104000,-0.000568,0.001024,-0.003963
1764077391814294078,2025-11-25 18:59:51.812,-1.047000,1.425000,142.844000,-0.015200,-0.323800,0.111600,0.242000,0.199000,-10.119000,-0.000246,0.001341,-0.003815
1764077391838170097,2025-11-25 18:59:51.836,-1.047000,1.426000,142.839000,-0.016100,-0.326500,0.114700,0.278000,0.192000,-10.136000,0.000033,0.001827,-0.004056
1764077391864194745,2025-11-25 18:59:51.862,-1.046000,1.429000,142.833000,-0.012600,-0.323800,0.112800,0.250000,0.179000,-10.124000,-0.000340,0.001407,-0.003854
1764077391889185986,2025-11-25 18:59:51.887,-1.047000,1.431000,142.828000,-0.015200,-0.322800,0.113700,0.242000,0.172000,-10.122000,-0.001031,0.002831,-0.003689
1764077391914153337,2025-11-25 18:59:51.912,-1.048000,1.434000,142.821000,-0.013400,-0.321900,0.117900,0.288000,0.179000,-10.117000,-0.000903,0.000348,-0.004568
1764077391938177634,2025-11-25 18:59:51.936,-1.047000,1.435000,142.815000,-0.016800,-0.317200,0.114600,0.244000,0.177000,-10.104000,-0.000515,0.000830,-0.003199
1764077391963777004,2025-11-25 18:59:51.962,-1.048000,1.436000,142.806000,-0.013400,-0.324700,0.133500,0.247000,0.181000,-10.125000,-0.000893,0.001662,-0.004223
1764077391990900615,2025-11-25 18:59:51.989,-1.050000,1.438000,142.801000,-0.013500,-0.326600,0.113800,0.250000,0.183000,-10.123000,-0.000022,0.001229,-0.004463
1764077392015712337,2025-11-25 18:59:52.014,-1.050000,1.438000,142.795000,-0.014400,-0.325600,0.115800,0.253000,0.172000,-10.094000,0.000277,0.002724,-0.004421
1764077392039720337,2025-11-25 18:59:52.037,-1.050000,1.439000,142.788000,-0.013600,-0.330300,0.113900,0.265000,0.184000,-10.147000,-0.000251,0.001070,-0.003611
1764077392064170448,2025-11-25 18:59:52.062,-1.052000,1.439000,142.780000,-0.014300,-0.323800,0.116900,0.212000,0.226000,-10.121000,-0.001087,0.000016,-0.005267
1764077392090786078,2025-11-25 18:59:52.089,-1.052000,1.440000,142.773000,-0.014400,-0.325600,0.113800,0.289000,0.173000,-10.122000,-0.000649,0.000746,-0.003992
1764077392114565337,2025-11-25 18:59:52.113,-1.053000,1.441000,142.768000,-0.013400,-0.323800,0.114800,0.259000,0.191000,-10.134000,0.000046,0.000259,-0.004113
1764077392138252763,2025-11-25 18:59:52.136,-1.054000,1.440000,142.760000,-0.014300,-0.322800,0.116900,0.269000,0.187000,-10.142000,-0.000540,0.000285,-0.004887
1764077392166192800,2025-11-25 18:59:52.164,-1.053000,1.441000,142.753000,-0.010800,-0.322000,0.115000,0.263000,0.183000,-10.120000,0.000375,-0.000822,-0.004164
1764077392228910078,2025-11-25 18:59:52.227,-1.054000,1.439000,142.739000,-0.013500,-0.323800,0.111700,0.268000,0.176000,-10.092000,-0.000186,0.000041,-0.004583
1764077392237102411,2025-11-25 18:59:52.235,-1.053000,1.438000,142.732000,-0.015200,-0.324700,0.116800,0.213000,0.178000,-10.143000,0.000331,-0.000996,-0.004954
1764077392264175726,2025-11-25 18:59:52.262,-1.053000,1.437000,142.727000,-0.012500,-0.323800,0.119000,0.271000,0.182000,-10.128000,0.000244,-0.000497,-0.004596
1764077392288821004,2025-11-25 18:59:52.287,-1.052000,1.437000,142.719000,-0.013500,-0.327500,0.117000,0.239000,0.193000,-10.156000,0.000473,0.000531,-0.004841
1764077392311823726,2025-11-25 18:59:52.310,-1.053000,1.435000,142.714000,-0.014400,-0.326600,0.110700,0.231000,0.181000,-10.110000,-0.000135,-0.000569,-0.002947
1764077392338186856,2025-11-25 18:59:52.336,-1.053000,1.434000,142.709000,-0.015000,-0.319000,0.134400,0.290000,0.179000,-10.126000,0.000794,-0.001185,-0.003938
1764077392366495467,2025-11-25 18:59:52.365,-1.053000,1.433000,142.704000,-0.012600,-0.326600,0.119100,0.249000,0.212000,-10.122000,0.001024,-0.000746,-0.003494
1764077392388469559,2025-11-25 18:59:52.387,-1.053000,1.430000,142.698000,-0.014400,-0.325600,0.115900,0.258000,0.179000,-10.138000,0.000506,-0.000862,-0.003343
1764077392414063226,2025-11-25 18:59:52.412,-1.052000,1.429000,142.691000,-0.012600,-0.325700,0.113900,0.257000,0.197000,-10.121000,0.000088,-0.000121,-0.004312
1764077392438369319,2025-11-25 18:59:52.437,-1.051000,1.428000,142.684000,-0.012600,-0.327500,0.117000,0.229000,0.188000,-10.134000,0.000594,0.000244,-0.004423
1764077392464290745,2025-11-25 18:59:52.462,-1.052000,1.427000,142.680000,-0.013500,-0.324700,0.113800,0.258000,0.217000,-10.121000,-0.000272,-0.000350,-0.004409
1764077392487925189,2025-11-25 18:59:52.486,-1.052000,1.426000,142.674000,-0.011700,-0.326600,0.116000,0.227000,0.196000,-10.103000,0.000260,-0.000254,-0.005053
1764077392515442374,2025-11-25 18:59:52.513,-1.052000,1.425000,142.667000,-0.013500,-0.326600,0.118000,0.262000,0.170000,-10.112000,0.000815,-0.000315,-0.004333
1764077392537598800,2025-11-25 18:59:52.536,-1.052000,1.425000,142.659000,-0.014300,-0.322800,0.116900,0.242000,0.187000,-10.121000,-0.000327,-0.000756,-0.004434
1764077392567720041,2025-11-25 18:59:52.566,-1.052000,1.426000,142.654000,-0.012500,-0.321900,0.115900,0.254000,0.178000,-10.109000,-0.000649,0.001486,-0.003887
1764077392590306152,2025-11-25 18:59:52.588,-1.052000,1.428000,142.648000,-0.014300,-0.323800,0.116900,0.269000,0.171000,-10.115000,0.000164,0.000171,-0.004287
1764077392614071689,2025-11-25 18:59:52.612,-1.051000,1.428000,142.641000,-0.011500,-0.315400,0.112800,0.235000,0.194000,-10.134000,0.000460,0.001995,-0.004218
1764077392640890559,2025-11-25 18:59:52.639,-1.051000,1.428000,142.635000,-0.017800,-0.322800,0.112600,0.258000,0.196000,-10.119000,-0.000225,0.000607,-0.004744
1764077392664630189,2025-11-25 18:59:52.663,-1.051000,1.431000,142.630000,-0.014300,-0.322800,0.114800,0.245000,0.199000,-10.126000,0.001540,0.001105,-0.005440
1764077392687876244,2025-11-25 18:59:52.686,-1.052000,1.430000,142.624000,-0.013400,-0.323800,0.119000,0.248000,0.194000,-10.133000,-0.000087,0.001368,-0.003196
1764077392714044541,2025-11-25 18:59:52.712,-1.050000,1.433000,142.618000,-0.011700,-0.326600,0.116000,0.271000,0.175000,-10.142000,0.000469,0.001419,-0.004945
1764077392737902670,2025-11-25 18:59:52.736,-1.051000,1.434000,142.611000,-0.012600,-0.326600,0.117000,0.231000,0.192000,-10.102000,-0.000067,0.001182,-0.004600
1764077392763950467,2025-11-25 18:59:52.762,-1.052000,1.435000,142.605000,-0.012400,-0.316300,0.115900,0.273000,0.183000,-10.138000,-0.001046,0.000538,-0.003823
1764077392788161504,2025-11-25 18:59:52.786,-1.052000,1.437000,142.599000,-0.014300,-0.324700,0.115900,0.236000,0.190000,-10.130000,-0.000511,0.001364,-0.004615
1764077392813949337,2025-11-25 18:59:52.812,-1.054000,1.437000,142.593000,-0.013500,-0.324700,0.113800,0.272000,0.190000,-10.117000,-0.000759,0.000345,-0.004451
1764077392838280948,2025-11-25 18:59:52.836,-1.054000,1.439000,142.586000,-0.014400,-0.327500,0.114800,0.272000,0.168000,-10.082000,-0.000023,0.000072,-0.004790
1764077392863557022,2025-11-25 18:59:52.862,-1.055000,1.439000,142.581000,-0.013500,-0.327500,0.113800,0.230000,0.200000,-10.102000,-0.000012,0.000429,-0.004078
1764077392888520337,2025-11-25 18:59:52.887,-1.056000,1.440000,142.574000,-0.009900,-0.325700,0.116100,0.276000,0.179000,-10.110000,0.000086,-0.000470,-0.004034
1764077392912404855,2025-11-25 18:59:52.911,-1.056000,1.440000,142.568000,-0.012400,-0.317300,0.110700,0.243000,0.204000,-10.110000,-0.000563,-0.000732,-0.004254
1764077392939950929,2025-11-25 18:59:52.937,-1.056000,1.438000,142.562000,-0.011400,-0.310800,0.108600,0.238000,0.156000,-10.105000,-0.000174,0.000780,-0.003751
1764077392963933966,2025-11-25 18:59:52.962,-1.056000,1.439000,142.556000,-0.011500,-0.317300,0.113900,0.230000,0.200000,-10.134000,0.000806,-0.000132,-0.002945
1764077392989085355,2025-11-25 18:59:52.987,-1.056000,1.437000,142.549000,-0.012600,-0.325700,0.114900,0.257000,0.177000,-10.168000,0.000568,-0.000383,-0.003759
1764077393017210707,2025-11-25 18:59:53.015,-1.055000,1.437000,142.545000,-0.013400,-0.321000,0.114800,0.268000,0.187000,-10.130000,0.000681,-0.000497,-0.003796
1764077393037302485,2025-11-25 18:59:53.035,-1.055000,1.436000,142.538000,-0.013400,-0.322900,0.112800,0.242000,0.195000,-10.151000,-0.000429,-0.000526,-0.003853
1764077393064892170,2025-11-25 18:59:53.063,-1.054000,1.434000,142.533000,-0.011800,-0.328500,0.113900,0.274000,0.173000,-10.126000,0.001141,-0.001153,-0.004501
1764077393088576652,2025-11-25 18:59:53.087,-1.054000,1.434000,142.528000,-0.013400,-0.321000,0.114800,0.238000,0.203000,-10.125000,-0.000834,-0.001799,-0.004567
1764077393115640911,2025-11-25 18:59:53.113,-1.054000,1.431000,142.522000,-0.012600,-0.324700,0.115900,0.241000,0.184000,-10.148000,0.000948,-0.000421,-0.004717
1764077393140366800,2025-11-25 18:59:53.138,-1.053000,1.431000,142.517000,-0.012600,-0.325700,0.112800,0.259000,0.190000,-10.137000,-0.000253,-0.000763,-0.004349
1764077393162935818,2025-11-25 18:59:53.161,-1.053000,1.429000,142.512000,-0.013400,-0.323800,0.116900,0.242000,0.214000,-10.100000,0.000781,0.001150,-0.003792
1764077393232322892,2025-11-25 18:59:53.231,-1.051000,1.429000,142.500000,-0.012400,-0.314500,0.115900,0.235000,0.161000,-10.103000,0.000082,-0.001237,-0.004369
1764077393240702226,2025-11-25 18:59:53.239,-1.050000,1.427000,142.495000,-0.011500,-0.313600,0.112800,0.261000,0.190000,-10.121000,0.000986,-0.000938,-0.003138
1764077393266098818,2025-11-25 18:59:53.265,-1.049000,1.428000,142.489000,-0.011700,-0.323800,0.111800,0.273000,0.163000,-10.140000,0.000918,-0.000726,-0.004132
1764077393289287911,2025-11-25 18:59:53.288,-1.047000,1.426000,142.483000,-0.015200,-0.324700,0.119900,0.236000,0.202000,-10.070000,0.000363,-0.000908,-0.004488
1764077393313707744,2025-11-25 18:59:53.312,-1.048000,1.426000,142.478000,-0.011600,-0.322900,0.118000,0.277000,0.170000,-10.131000,0.000741,0.000349,-0.004028
1764077393339696763,2025-11-25 18:59:53.337,-1.046000,1.425000,142.473000,-0.011700,-0.324800,0.116000,0.223000,0.168000,-10.107000,0.000940,0.000110,-0.003910
1764077393363832725,2025-11-25 18:59:53.362,-1.045000,1.425000,142.466000,-0.012600,-0.327500,0.117000,0.285000,0.174000,-10.120000,0.000532,0.000930,-0.004653
1764077393388066633,2025-11-25 18:59:53.386,-1.045000,1.427000,142.460000,-0.010700,-0.321000,0.117000,0.252000,0.166000,-10.126000,0.000435,-0.000029,-0.005624
1764077393413011300,2025-11-25 18:59:53.411,-1.045000,1.427000,142.454000,-0.012600,-0.328500,0.120100,0.257000,0.189000,-10.106000,0.001222,0.000360,-0.004840
1764077393437423596,2025-11-25 18:59:53.436,-1.043000,1.428000,142.448000,-0.012600,-0.325700,0.120100,0.255000,0.177000,-10.100000,0.000140,0.000537,-0.004114
1764077393463618614,2025-11-25 18:59:53.462,-1.043000,1.428000,142.441000,-0.014400,-0.325600,0.116900,0.225000,0.191000,-10.162000,0.000281,-0.000422,-0.004302
1764077393487295744,2025-11-25 18:59:53.486,-1.043000,1.429000,142.435000,-0.010800,-0.325700,0.115000,0.273000,0.171000,-10.141000,-0.000212,0.000327,-0.004595
1764077393514387651,2025-11-25 18:59:53.512,-1.043000,1.430000,142.428000,-0.010700,-0.317300,0.113900,0.234000,0.184000,-10.105000,-0.000053,0.000224,-0.003874
1764077393539391707,2025-11-25 18:59:53.537,-1.044000,1.430000,142.422000,-0.009900,-0.324800,0.113000,0.266000,0.186000,-10.184000,-0.000305,0.000196,-0.004625
1764077393564596818,2025-11-25 18:59:53.563,-1.045000,1.431000,142.415000,-0.010800,-0.322900,0.113900,0.273000,0.187000,-10.136000,-0.001614,0.000540,-0.004311
1764077393588835781,2025-11-25 18:59:53.587,-1.045000,1.432000,142.410000,-0.013500,-0.324700,0.115900,0.241000,0.184000,-10.130000,0.000055,0.000676,-0.003541
1764077393613816873,2025-11-25 18:59:53.612,-1.046000,1.432000,142.403000,-0.011700,-0.322900,0.112900,0.259000,0.201000,-10.123000,-0.001427,0.000861,-0.003612
1764077393639726355,2025-11-25 18:59:53.637,-1.047000,1.434000,142.399000,-0.014400,-0.324700,0.112700,0.250000,0.185000,-10.131000,-0.002083,0.000915,-0.004152
1764077393667196466,2025-11-25 18:59:53.665,-1.048000,1.433000,142.393000,-0.012600,-0.323800,0.105600,0.251000,0.176000,-10.068000,-0.000212,-0.000757,-0.004836
1764077393688987873,2025-11-25 18:59:53.687,-1.049000,1.435000,142.387000,-0.012500,-0.322900,0.117000,0.267000,0.190000,-10.156000,0.000442,0.000320,-0.003943
1764077393713948596,2025-11-25 18:59:53.712,-1.050000,1.435000,142.379000,-0.011700,-0.322900,0.111800,0.242000,0.206000,-10.118000,-0.000676,0.000452,-0.004231
1764077393739386299,2025-11-25 18:59:53.737,-1.051000,1.436000,142.373000,-0.012500,-0.321000,0.115900,0.257000,0.173000,-10.090000,0.000391,0.000918,-0.006096
1764077393763811503,2025-11-25 18:59:53.762,-1.052000,1.436000,142.366000,-0.012600,-0.325700,0.114900,0.249000,0.189000,-10.158000,-0.000675,0.000640,-0.004218
1764077393788780281,2025-11-25 18:59:53.787,-1.053000,1.436000,142.361000,-0.011700,-0.323800,0.116000,0.259000,0.191000,-10.156000,-0.000363,-0.000423,-0.003913
1764077393813835392,2025-11-25 18:59:53.812,-1.053000,1.437000,142.354000,-0.014100,-0.315400,0.115800,0.268000,0.181000,-10.159000,-0.001594,-0.000349,-0.004278
1764077393838415818,2025-11-25 18:59:53.837,-1.054000,1.436000,142.348000,-0.013500,-0.323800,0.111800,0.234000,0.205000,-10.155000,-0.000424,0.000206,-0.005504
1764077393866493392,2025-11-25 18:59:53.864,-1.055000,1.436000,142.344000,-0.014400,-0.325600,0.114800,0.271000,0.187000,-10.132000,-0.001181,-0.000801,-0.003597
1764077393889339929,2025-11-25 18:59:53.887,-1.055000,1.436000,142.338000,-0.011700,-0.324800,0.115000,0.243000,0.183000,-10.123000,0.000955,0.000458,-0.003355
1764077393913932855,2025-11-25 18:59:53.912,-1.054000,1.436000,142.331000,-0.011600,-0.322900,0.116000,0.270000,0.186000,-10.117000,0.001338,0.000608,-0.004243
1764077393939335133,2025-11-25 18:59:53.937,-1.054000,1.436000,142.325000,-0.012500,-0.322000,0.112800,0.267000,0.184000,-10.140000,0.000246,-0.000451,-0.003462
1764077393963387188,2025-11-25 18:59:53.961,-1.053000,1.434000,142.320000,-0.013500,-0.323800,0.108700,0.251000,0.205000,-10.135000,0.000348,-0.000428,-0.003773
1764077393989727558,2025-11-25 18:59:53.988,-1.051000,1.436000,142.314000,-0.010800,-0.322900,0.112900,0.275000,0.194000,-10.118000,0.001010,-0.000276,-0.004486
1764077394015848151,2025-11-25 18:59:54.014,-1.050000,1.435000,142.308000,-0.012600,-0.325700,0.114900,0.224000,0.173000,-10.130000,0.000068,0.000458,-0.004460
1764077394039414188,2025-11-25 18:59:54.037,-1.049000,1.433000,142.303000,-0.011700,-0.326600,0.117000,0.265000,0.183000,-10.133000,0.001794,-0.000644,-0.004738
1764077394064498466,2025-11-25 18:59:54.063,-1.049000,1.433000,142.297000,-0.010800,-0.325700,0.116100,0.261000,0.194000,-10.113000,0.000801,-0.000654,-0.003467
1764077394088294003,2025-11-25 18:59:54.087,-1.048000,1.431000,142.291000,-0.013200,-0.313500,0.112700,0.256000,0.158000,-10.151000,0.002124,-0.000748,-0.003817
1764077394115545540,2025-11-25 18:59:54.113,-1.045000,1.431000,142.285000,-0.009100,-0.326700,0.114100,0.269000,0.181000,-10.127000,0.000936,-0.000140,-0.003479
1764077394139617484,2025-11-25 18:59:54.138,-1.043000,1.429000,142.280000,-0.012500,-0.322900,0.113900,0.237000,0.178000,-10.117000,0.001450,-0.000689,-0.003863
1764077394163314929,2025-11-25 18:59:54.161,-1.041000,1.429000,142.276000,-0.013400,-0.321000,0.116900,0.265000,0.172000,-10.149000,0.001111,0.000169,-0.004645
1764077394229353595,2025-11-25 18:59:54.228,-1.038000,1.428000,142.264000,-0.010000,-0.327600,0.112000,0.245000,0.183000,-10.116000,0.000343,0.000021,-0.003873
1764077394237617706,2025-11-25 18:59:54.236,-1.037000,1.430000,142.257000,-0.009900,-0.324800,0.115100,0.269000,0.166000,-10.130000,0.000466,0.000977,-0.003238
1764077394263822429,2025-11-25 18:59:54.262,-1.036000,1.430000,142.251000,-0.009800,-0.318300,0.112900,0.239000,0.177000,-10.141000,0.001326,0.002013,-0.004561
1764077394288271595,2025-11-25 18:59:54.286,-1.037000,1.430000,142.245000,-0.010800,-0.326600,0.118100,0.256000,0.183000,-10.137000,0.000336,-0.000317,-0.004454
1764077394311486521,2025-11-25 18:59:54.310,-1.037000,1.432000,142.238000,-0.010800,-0.322900,0.118100,0.256000,0.204000,-10.170000,0.001236,0.001006,-0.004076
1764077394337993855,2025-11-25 18:59:54.336,-1.036000,1.431000,142.231000,-0.012600,-0.324800,0.113900,0.266000,0.179000,-10.099000,0.000281,0.000840,-0.004456
1764077394364193262,2025-11-25 18:59:54.362,-1.037000,1.432000,142.225000,-0.011700,-0.326600,0.111900,0.264000,0.182000,-10.164000,-0.000661,0.000530,-0.004384
1764077394387824799,2025-11-25 18:59:54.386,-1.037000,1.433000,142.218000,-0.008200,-0.325800,0.116200,0.252000,0.179000,-10.108000,0.000370,0.000390,-0.004963
1764077394414211095,2025-11-25 18:59:54.412,-1.037000,1.434000,142.213000,-0.012600,-0.327500,0.117000,0.283000,0.177000,-10.121000,-0.000872,0.000163,-0.003357
1764077394437993910,2025-11-25 18:59:54.436,-1.038000,1.434000,142.207000,-0.010000,-0.327600,0.115100,0.227000,0.194000,-10.123000,-0.001242,0.000313,-0.005100
1764077394463860299,2025-11-25 18:59:54.462,-1.041000,1.435000,142.201000,-0.009800,-0.318300,0.116000,0.278000,0.177000,-10.138000,-0.000902,0.000969,-0.004331
1764077394487469854,2025-11-25 18:59:54.486,-1.042000,1.437000,142.196000,-0.009100,-0.326700,0.119300,0.251000,0.180000,-10.096000,-0.001265,0.001127,-0.005218
1764077394514869651,2025-11-25 18:59:54.513,-1.043000,1.436000,142.189000,-0.010900,-0.327600,0.117100,0.251000,0.179000,-10.138000,-0.000772,-0.000355,-0.003675
1764077394537961614,2025-11-25 18:59:54.536,-1.046000,1.437000,142.184000,-0.010000,-0.326700,0.113000,0.268000,0.175000,-10.121000,-0.001227,-0.000525,-0.004539
1764077394563715780,2025-11-25 18:59:54.562,-1.048000,1.435000,142.178000,-0.010800,-0.326600,0.116100,0.239000,0.170000,-10.100000,-0.000996,-0.000336,-0.004325
1764077394587688336,2025-11-25 18:59:54.586,-1.051000,1.433000,142.173000,-0.009200,-0.331400,0.115200,0.289000,0.191000,-10.121000,-0.001702,-0.001032,-0.003351
1764077394613780984,2025-11-25 18:59:54.612,-1.052000,1.434000,142.167000,-0.010700,-0.321100,0.116000,0.220000,0.170000,-10.102000,-0.000858,0.000045,-0.003726
1764077394639304799,2025-11-25 18:59:54.637,-1.053000,1.430000,142.163000,-0.011800,-0.326700,0.105700,0.230000,0.177000,-10.143000,-0.000416,-0.001098,-0.003726
1764077394662443021,2025-11-25 18:59:54.660,-1.053000,1.431000,142.158000,-0.010800,-0.325700,0.114000,0.250000,0.183000,-10.106000,0.000158,-0.000225,-0.003307
1764077394688797984,2025-11-25 18:59:54.687,-1.056000,1.429000,142.153000,-0.010700,-0.320100,0.110800,0.239000,0.186000,-10.110000,-0.000468,-0.000913,-0.003951
1764077394713923280,2025-11-25 18:59:54.712,-1.057000,1.428000,142.146000,-0.010800,-0.322900,0.114000,0.261000,0.161000,-10.130000,-0.000367,-0.001591,-0.003985
1764077394737943614,2025-11-25 18:59:54.736,-1.057000,1.426000,142.139000,-0.009900,-0.323900,0.115000,0.245000,0.187000,-10.117000,0.000345,-0.002033,-0.004035
1764077394763991095,2025-11-25 18:59:54.762,-1.057000,1.424000,142.133000,-0.010800,-0.324800,0.115000,0.273000,0.184000,-10.110000,0.000409,-0.000681,-0.003716
1764077394787460651,2025-11-25 18:59:54.786,-1.057000,1.424000,142.127000,-0.009900,-0.324800,0.117100,0.270000,0.171000,-10.121000,-0.000598,-0.000381,-0.003667
1764077394815086632,2025-11-25 18:59:54.813,-1.056000,1.422000,142.121000,-0.010900,-0.327600,0.116100,0.218000,0.201000,-10.122000,0.000496,0.000168,-0.004573
1764077394837973206,2025-11-25 18:59:54.836,-1.055000,1.421000,142.116000,-0.012600,-0.324800,0.114900,0.284000,0.165000,-10.110000,0.000766,-0.000790,-0.003835
1764077394863382706,2025-11-25 18:59:54.862,-1.054000,1.421000,142.112000,-0.011400,-0.310800,0.111800,0.228000,0.190000,-10.116000,0.001205,-0.000223,-0.003627
1764077394887319539,2025-11-25 18:59:54.886,-1.054000,1.420000,142.106000,-0.009900,-0.322900,0.111900,0.265000,0.188000,-10.137000,-0.000354,0.000382,-0.004305
1764077394912870206,2025-11-25 18:59:54.911,-1.052000,1.421000,142.101000,-0.011700,-0.322900,0.113900,0.244000,0.171000,-10.130000,0.001235,0.000407,-0.004534
1764077394939784373,2025-11-25 18:59:54.938,-1.050000,1.420000,142.095000,-0.010800,-0.324800,0.112900,0.245000,0.189000,-10.130000,0.000561,0.000509,-0.004085
1764077394963150595,2025-11-25 18:59:54.961,-1.048000,1.421000,142.090000,-0.009800,-0.317300,0.112900,0.263000,0.181000,-10.149000,0.001117,0.000742,-0.004102
1764077394988369576,2025-11-25 18:59:54.986,-1.047000,1.421000,142.084000,-0.009900,-0.324800,0.116100,0.238000,0.202000,-10.133000,0.000479,-0.000068,-0.004091
1764077395015450799,2025-11-25 18:59:55.013,-1.046000,1.422000,142.078000,-0.010700,-0.322000,0.117100,0.259000,0.191000,-10.144000,0.000045,0.000630,-0.004427
1764077395039271484,2025-11-25 18:59:55.037,-1.045000,1.423000,142.072000,-0.010800,-0.323900,0.110900,0.245000,0.175000,-10.132000,0.001792,0.000496,-0.004417
1764077395063481743,2025-11-25 18:59:55.062,-1.044000,1.423000,142.067000,-0.010700,-0.322000,0.117100,0.236000,0.191000,-10.141000,0.001028,0.001266,-0.002901
1764077395089350113,2025-11-25 18:59:55.087,-1.042000,1.425000,142.060000,-0.009100,-0.324800,0.114100,0.269000,0.174000,-10.127000,0.000914,0.000328,-0.004234
1764077395115824465,2025-11-25 18:59:55.114,-1.041000,1.425000,142.056000,-0.011700,-0.322900,0.116000,0.220000,0.182000,-10.118000,0.001714,-0.000470,-0.004088
1764077395138454910,2025-11-25 18:59:55.137,-1.040000,1.426000,142.051000,-0.009100,-0.325700,0.117200,0.279000,0.170000,-10.125000,0.000099,0.000988,-0.003972
1764077395162584669,2025-11-25 18:59:55.161,-1.040000,1.428000,142.047000,-0.009000,-0.323000,0.113000,0.223000,0.198000,-10.129000,-0.000991,0.001381,-0.003930
1764077395229265576,2025-11-25 18:59:55.228,-1.038000,1.428000,142.036000,-0.010800,-0.324800,0.117100,0.235000,0.173000,-10.126000,-0.000246,0.001660,-0.003352
1764077395237579669,2025-11-25 18:59:55.236,-1.038000,1.428000,142.031000,-0.011700,-0.323800,0.118100,0.243000,0.162000,-10.148000,-0.000145,0.000047,-0.004719
1764077395264986984,2025-11-25 18:59:55.263,-1.039000,1.428000,142.027000,-0.009100,-0.325800,0.116100,0.250000,0.169000,-10.139000,-0.000163,0.000387,-0.003926
1764077395288755039,2025-11-25 18:59:55.287,-1.040000,1.429000,142.021000,-0.010800,-0.323800,0.117100,0.206000,0.193000,-10.111000,0.000254,-0.000099,-0.003987
1764077395311954280,2025-11-25 18:59:55.310,-1.042000,1.428000,142.014000,-0.011600,-0.321000,0.117000,0.263000,0.180000,-10.113000,-0.001170,0.001306,-0.003602
1764077395337976132,2025-11-25 18:59:55.336,-1.042000,1.431000,142.010000,-0.010000,-0.328500,0.118200,0.256000,0.203000,-10.157000,0.000422,0.001500,-0.004568
1764077395363230187,2025-11-25 18:59:55.361,-1.044000,1.430000,142.004000,-0.010000,-0.326700,0.115100,0.242000,0.196000,-10.099000,-0.001022,-0.001079,-0.003136
1764077395387517298,2025-11-25 18:59:55.386,-1.046000,1.432000,141.998000,-0.008300,-0.327700,0.107900,0.281000,0.168000,-10.130000,-0.000372,0.001180,-0.004823
1764077395413638761,2025-11-25 18:59:55.412,-1.047000,1.433000,141.991000,-0.009100,-0.324800,0.114100,0.260000,0.194000,-10.111000,-0.000897,0.001688,-0.004344
1764077395437993317,2025-11-25 18:59:55.436,-1.049000,1.432000,141.984000,-0.010900,-0.327600,0.116100,0.271000,0.196000,-10.115000,0.000142,-0.000798,-0.003738
1764077395465671872,2025-11-25 18:59:55.464,-1.050000,1.433000,141.978000,-0.008100,-0.323000,0.114100,0.231000,0.195000,-10.150000,-0.001347,0.000034,-0.006456
1764077395487720761,2025-11-25 18:59:55.486,-1.052000,1.432000,141.973000,-0.007300,-0.325800,0.106900,0.249000,0.167000,-10.115000,0.000075,-0.000872,-0.004944
1764077395513224558,2025-11-25 18:59:55.511,-1.052000,1.432000,141.964000,-0.010800,-0.323900,0.112900,0.289000,0.193000,-10.110000,-0.000368,0.000410,-0.003992
1764077395538606298,2025-11-25 18:59:55.537,-1.053000,1.431000,141.957000,-0.008100,-0.322000,0.113100,0.222000,0.213000,-10.135000,0.000055,-0.000028,-0.003598
1764077395563369854,2025-11-25 18:59:55.561,-1.055000,1.429000,141.950000,-0.009100,-0.326700,0.115100,0.272000,0.200000,-10.103000,-0.000059,-0.001043,-0.005214
1764077395586860502,2025-11-25 18:59:55.585,-1.056000,1.430000,141.945000,-0.011600,-0.320100,0.114900,0.244000,0.177000,-10.108000,-0.000795,-0.000263,-0.004116
1764077395612439132,2025-11-25 18:59:55.611,-1.057000,1.427000,141.939000,-0.011600,-0.322000,0.112900,0.259000,0.207000,-10.122000,-0.000260,0.000600,-0.003135
1764077395640029854,2025-11-25 18:59:55.638,-1.057000,1.428000,141.933000,-0.009900,-0.322000,0.115000,0.253000,0.184000,-10.138000,0.000330,-0.000044,-0.003547
1764077395664154502,2025-11-25 18:59:55.662,-1.057000,1.426000,141.927000,-0.009000,-0.321100,0.115100,0.233000,0.209000,-10.140000,0.000368,-0.000285,-0.003219
1764077395687276928,2025-11-25 18:59:55.685,-1.056000,1.425000,141.921000,-0.009700,-0.314500,0.116000,0.268000,0.173000,-10.129000,0.000153,-0.000484,-0.004313
1764077395713617039,2025-11-25 18:59:55.712,-1.055000,1.426000,141.916000,-0.009800,-0.319200,0.112900,0.248000,0.196000,-10.145000,0.000421,0.000026,-0.003313
1764077395738946761,2025-11-25 18:59:55.737,-1.055000,1.424000,141.910000,-0.008000,-0.319200,0.114100,0.262000,0.174000,-10.143000,0.000646,-0.000351,-0.003217
1764077395762563187,2025-11-25 18:59:55.761,-1.052000,1.425000,141.903000,-0.010800,-0.325700,0.114000,0.237000,0.159000,-10.100000,0.001878,-0.000533,-0.003204
1764077395786921650,2025-11-25 18:59:55.785,-1.051000,1.423000,141.897000,-0.009000,-0.323900,0.114100,0.253000,0.171000,-10.096000,0.000630,-0.000894,-0.003370
1764077395814128020,2025-11-25 18:59:55.812,-1.050000,1.423000,141.893000,-0.009900,-0.321100,0.113000,0.258000,0.194000,-10.108000,0.000896,-0.000673,-0.003840
1764077395839630668,2025-11-25 18:59:55.837,-1.049000,1.424000,141.887000,-0.009000,-0.323900,0.115100,0.219000,0.193000,-10.132000,0.000993,-0.000303,-0.003878
1764077395863082002,2025-11-25 18:59:55.861,-1.049000,1.422000,141.882000,-0.009900,-0.322900,0.111900,0.255000,0.175000,-10.134000,0.001670,0.000222,-0.003598
1764077395886802594,2025-11-25 18:59:55.885,-1.049000,1.423000,141.876000,-0.008100,-0.323900,0.115100,0.256000,0.206000,-10.155000,-0.000054,-0.000202,-0.004097
1764077395911881372,2025-11-25 18:59:55.910,-1.048000,1.421000,141.870000,-0.009000,-0.323000,0.114100,0.230000,0.187000,-10.122000,-0.000026,0.000435,-0.004122
1764077395939673724,2025-11-25 18:59:55.938,-1.048000,1.422000,141.865000,-0.009900,-0.323900,0.115100,0.261000,0.174000,-10.135000,0.000168,0.000291,-0.003631
1764077395963540150,2025-11-25 18:59:55.962,-1.048000,1.421000,141.859000,-0.007300,-0.324000,0.103800,0.228000,0.179000,-10.085000,0.000277,0.000078,-0.003364
1764077395988131854,2025-11-25 18:59:55.986,-1.048000,1.420000,141.853000,-0.009100,-0.328600,0.115100,0.261000,0.183000,-10.136000,-0.000209,-0.000725,-0.003219
1764077396015105446,2025-11-25 18:59:56.013,-1.047000,1.422000,141.848000,-0.009800,-0.317300,0.112900,0.233000,0.196000,-10.115000,-0.000704,-0.000087,-0.004864
1764077396039299261,2025-11-25 18:59:56.037,-1.047000,1.421000,141.842000,-0.008100,-0.322000,0.115100,0.243000,0.200000,-10.081000,-0.000557,0.000076,-0.004124
1764077396063081391,2025-11-25 18:59:56.061,-1.047000,1.423000,141.837000,-0.009000,-0.323900,0.112000,0.268000,0.171000,-10.127000,-0.001735,-0.000174,-0.003624
1764077396088371224,2025-11-25 18:59:56.086,-1.048000,1.423000,141.834000,-0.009900,-0.323900,0.117100,0.229000,0.173000,-10.133000,0.000528,0.001462,-0.003914
1764077396115004965,2025-11-25 18:59:56.113,-1.048000,1.423000,141.829000,-0.006500,-0.328600,0.118400,0.278000,0.181000,-10.175000,-0.001025,-0.000681,-0.003303
1764077396140007594,2025-11-25 18:59:56.138,-1.048000,1.426000,141.823000,-0.008000,-0.318300,0.114100,0.232000,0.175000,-10.119000,-0.000757,0.001466,-0.002960
1764077396164873835,2025-11-25 18:59:56.163,-1.049000,1.425000,141.817000,-0.008200,-0.325800,0.110000,0.264000,0.179000,-10.112000,-0.000920,0.000784,-0.004118
1764077396230423539,2025-11-25 18:59:56.229,-1.051000,1.427000,141.807000,-0.009800,-0.319200,0.117100,0.239000,0.201000,-10.126000,-0.001140,0.001193,-0.003489
1764077396238766150,2025-11-25 18:59:56.237,-1.052000,1.428000,141.803000,-0.009000,-0.326600,0.132700,0.267000,0.162000,-10.137000,-0.000322,-0.000822,-0.003530
1764077396262644242,2025-11-25 18:59:56.261,-1.052000,1.429000,141.798000,-0.010800,-0.325700,0.116100,0.229000,0.197000,-10.166000,-0.000097,0.001018,-0.003748
1764077396288424279,2025-11-25 18:59:56.287,-1.053000,1.428000,141.792000,-0.006400,-0.325800,0.116300,0.248000,0.186000,-10.114000,-0.000210,-0.000071,-0.004370
1764077396311416168,2025-11-25 18:59:56.310,-1.054000,1.430000,141.787000,-0.009800,-0.319200,0.114000,0.238000,0.190000,-10.147000,-0.000414,0.001340,-0.003352
1764077396337754687,2025-11-25 18:59:56.336,-1.054000,1.428000,141.784000,-0.007300,-0.325800,0.115200,0.234000,0.180000,-10.124000,0.000703,-0.000019,-0.003130
1764077396364513020,2025-11-25 18:59:56.363,-1.055000,1.429000,141.777000,-0.009000,-0.323900,0.116100,0.281000,0.165000,-10.104000,-0.000267,-0.000487,-0.004989
1764077396387425446,2025-11-25 18:59:56.386,-1.054000,1.428000,141.772000,-0.007200,-0.323000,0.115200,0.230000,0.177000,-10.156000,-0.000386,-0.000892,-0.003920
1764077396413160650,2025-11-25 18:59:56.411,-1.055000,1.427000,141.766000,-0.009100,-0.326700,0.114100,0.246000,0.194000,-10.119000,0.000558,0.000087,-0.003678
1764077396438343446,2025-11-25 18:59:56.437,-1.055000,1.429000,141.759000,-0.007000,-0.312700,0.114100,0.221000,0.186000,-10.133000,-0.000553,0.000200,-0.003695
1764077396463033150,2025-11-25 18:59:56.461,-1.056000,1.426000,141.754000,-0.008100,-0.323900,0.116200,0.208000,0.190000,-10.096000,-0.000143,-0.000016,-0.003887
1764077396487251464,2025-11-25 18:59:56.485,-1.055000,1.425000,141.750000,-0.009900,-0.325700,0.117200,0.281000,0.188000,-10.155000,-0.000334,0.000034,-0.003696
1764077396513200094,2025-11-25 18:59:56.511,-1.055000,1.424000,141.744000,-0.009100,-0.324800,0.114100,0.236000,0.195000,-10.135000,0.000542,-0.000041,-0.004116
1764077396538365001,2025-11-25 18:59:56.537,-1.054000,1.423000,141.737000,-0.008000,-0.314600,0.113000,0.285000,0.215000,-10.122000,0.000503,-0.000142,-0.004565
1764077396563161001,2025-11-25 18:59:56.562,-1.054000,1.424000,141.731000,-0.009000,-0.322000,0.115100,0.244000,0.190000,-10.105000,-0.000409,-0.000047,-0.003148
1764077396589374798,2025-11-25 18:59:56.588,-1.054000,1.422000,141.725000,-0.007300,-0.323900,0.116200,0.246000,0.184000,-10.108000,0.000965,-0.000458,-0.003405
1764077396612515427,2025-11-25 18:59:56.611,-1.054000,1.422000,141.720000,-0.009100,-0.328600,0.116200,0.246000,0.176000,-10.126000,0.001268,-0.000677,-0.004188
1764077396638675149,2025-11-25 18:59:56.637,-1.054000,1.422000,141.715000,-0.009000,-0.324800,0.115100,0.249000,0.207000,-10.128000,0.000658,-0.000910,-0.004358
1764077396662440001,2025-11-25 18:59:56.661,-1.055000,1.421000,141.709000,-0.010800,-0.323900,0.118100,0.271000,0.188000,-10.134000,-0.000694,-0.000290,-0.004460
1764077396687015057,2025-11-25 18:59:56.685,-1.054000,1.422000,141.703000,-0.007300,-0.325800,0.117300,0.234000,0.185000,-10.098000,-0.000138,0.000131,-0.003151
1764077396712418057,2025-11-25 18:59:56.711,-1.054000,1.421000,141.696000,-0.009100,-0.326700,0.107900,0.241000,0.187000,-10.134000,0.000712,-0.000606,-0.004285
1764077396737534612,2025-11-25 18:59:56.736,-1.053000,1.421000,141.690000,-0.009000,-0.323000,0.116100,0.249000,0.193000,-10.125000,0.000575,0.000069,-0.005218
1764077396762936631,2025-11-25 18:59:56.761,-1.053000,1.420000,141.685000,-0.007200,-0.322100,0.114200,0.244000,0.183000,-10.100000,0.000942,0.000699,-0.003937
1764077396786821390,2025-11-25 18:59:56.785,-1.053000,1.421000,141.680000,-0.008200,-0.323900,0.112100,0.272000,0.156000,-10.154000,0.000622,0.000518,-0.002999
1764077396813036631,2025-11-25 18:59:56.811,-1.053000,1.421000,141.675000,-0.008000,-0.317400,0.112000,0.224000,0.209000,-10.145000,0.000375,0.000664,-0.004551
1764077396838283538,2025-11-25 18:59:56.837,-1.053000,1.419000,141.669000,-0.008200,-0.325800,0.109000,0.261000,0.195000,-10.124000,-0.000336,-0.000795,-0.004093
1764077396863089890,2025-11-25 18:59:56.861,-1.053000,1.420000,141.663000,-0.008100,-0.322100,0.113100,0.257000,0.177000,-10.095000,-0.000003,-0.000667,-0.004204
1764077396887100835,2025-11-25 18:59:56.885,-1.053000,1.421000,141.659000,-0.009000,-0.323000,0.115100,0.237000,0.195000,-10.100000,0.000787,0.000616,-0.003811
1764077396913545372,2025-11-25 18:59:56.912,-1.053000,1.421000,141.654000,-0.007300,-0.326700,0.116300,0.243000,0.200000,-10.156000,-0.000485,0.000451,-0.004044
1764077396938462723,2025-11-25 18:59:56.937,-1.053000,1.421000,141.650000,-0.006400,-0.325800,0.117300,0.219000,0.211000,-10.099000,-0.000235,0.000087,-0.005227
1764077396963538038,2025-11-25 18:59:56.962,-1.053000,1.422000,141.643000,-0.009900,-0.323900,0.113000,0.260000,0.179000,-10.139000,0.000817,0.001156,-0.004131
1764077396987779834,2025-11-25 18:59:56.986,-1.053000,1.424000,141.638000,-0.005400,-0.319300,0.119400,0.247000,0.174000,-10.135000,0.000658,0.001065,-0.003847
1764077397016335631,2025-11-25 18:59:57.015,-1.053000,1.422000,141.633000,-0.008100,-0.321100,0.114100,0.238000,0.187000,-10.116000,-0.000806,-0.000040,-0.004861
1764077397040251908,2025-11-25 18:59:57.038,-1.051000,1.424000,141.628000,-0.009000,-0.323000,0.115100,0.288000,0.164000,-10.132000,0.000361,0.000578,-0.002502
1764077397066268834,2025-11-25 18:59:57.064,-1.051000,1.426000,141.624000,-0.007200,-0.322100,0.116200,0.213000,0.177000,-10.138000,0.000331,0.000238,-0.003152
1764077397091939390,2025-11-25 18:59:57.090,-1.051000,1.426000,141.619000,-0.009000,-0.323900,0.114100,0.280000,0.177000,-10.150000,-0.000361,0.000499,-0.003848
1764077397115478890,2025-11-25 18:59:57.114,-1.051000,1.426000,141.614000,-0.008200,-0.326700,0.116200,0.219000,0.208000,-10.108000,0.000487,-0.000795,-0.002972
1764077397139805112,2025-11-25 18:59:57.138,-1.051000,1.426000,141.609000,-0.006400,-0.323000,0.109000,0.269000,0.197000,-10.102000,-0.000475,0.000224,-0.002178
1764077397164031797,2025-11-25 18:59:57.162,-1.050000,1.428000,141.603000,-0.008200,-0.324900,0.114100,0.257000,0.168000,-10.120000,-0.000229,0.001141,-0.003436
1764077397227767223,2025-11-25 18:59:57.226,-1.051000,1.427000,141.593000,-0.008200,-0.325800,0.116200,0.260000,0.205000,-10.118000,0.000112,0.000662,-0.003576
1764077397235932890,2025-11-25 18:59:57.234,-1.051000,1.427000,141.589000,-0.007300,-0.327700,0.118300,0.239000,0.202000,-10.129000,0.001015,-0.000857,-0.003823
1764077397266212353,2025-11-25 18:59:57.264,-1.051000,1.426000,141.584000,-0.008200,-0.327700,0.115200,0.255000,0.186000,-10.142000,0.000035,-0.000954,-0.003520
1764077397287891890,2025-11-25 18:59:57.286,-1.052000,1.427000,141.579000,-0.006400,-0.327700,0.118400,0.264000,0.190000,-10.123000,-0.000621,0.000110,-0.003668
1764077397313246668,2025-11-25 18:59:57.311,-1.053000,1.425000,141.574000,-0.008300,-0.329500,0.117300,0.223000,0.185000,-10.124000,0.000169,0.001192,-0.003372
1764077397337627797,2025-11-25 18:59:57.336,-1.052000,1.425000,141.570000,-0.007300,-0.325800,0.117300,0.270000,0.153000,-10.121000,0.000690,-0.000849,-0.003935
1764077397365520760,2025-11-25 18:59:57.364,-1.051000,1.424000,141.565000,-0.007300,-0.327700,0.117300,0.233000,0.195000,-10.151000,-0.000150,-0.001220,-0.003198
1764077397388130371,2025-11-25 18:59:57.386,-1.051000,1.422000,141.560000,-0.006500,-0.328600,0.118400,0.272000,0.183000,-10.084000,0.000608,-0.000299,-0.003815
1764077397414054334,2025-11-25 18:59:57.412,-1.051000,1.424000,141.554000,-0.004600,-0.324000,0.115400,0.278000,0.172000,-10.169000,0.000371,-0.000405,-0.003598
1764077397438234501,2025-11-25 18:59:57.436,-1.051000,1.421000,141.547000,-0.006300,-0.319300,0.113200,0.243000,0.186000,-10.126000,-0.000133,-0.001310,-0.003273
1764077397463874760,2025-11-25 18:59:57.462,-1.051000,1.421000,141.542000,-0.004500,-0.317500,0.113200,0.250000,0.176000,-10.119000,0.000158,-0.000563,-0.003536
1764077397486998927,2025-11-25 18:59:57.485,-1.052000,1.420000,141.536000,-0.006400,-0.326800,0.115300,0.216000,0.192000,-10.147000,-0.000173,0.000185,-0.004073
1764077397514904649,2025-11-25 18:59:57.513,-1.051000,1.419000,141.531000,-0.008000,-0.318300,0.114100,0.274000,0.170000,-10.128000,-0.000017,-0.000382,-0.003485
1764077397539512816,2025-11-25 18:59:57.537,-1.052000,1.419000,141.527000,-0.005500,-0.324000,0.115300,0.247000,0.179000,-10.128000,-0.000275,-0.000078,-0.003444
1764077397564924334,2025-11-25 18:59:57.563,-1.053000,1.419000,141.521000,-0.005600,-0.324000,0.103900,0.266000,0.180000,-10.131000,-0.001260,-0.000637,-0.003975
1764077397589065316,2025-11-25 18:59:57.587,-1.054000,1.420000,141.517000,-0.008200,-0.324900,0.113100,0.265000,0.185000,-10.114000,-0.000066,-0.000540,-0.002965
1764077397614170741,2025-11-25 18:59:57.612,-1.055000,1.420000,141.513000,-0.007100,-0.318300,0.115200,0.257000,0.185000,-10.123000,-0.000758,-0.000165,-0.003756
1764077397638182482,2025-11-25 18:59:57.636,-1.055000,1.420000,141.506000,-0.004500,-0.317500,0.115300,0.277000,0.187000,-10.119000,-0.000615,-0.000866,-0.004553
1764077397668137167,2025-11-25 18:59:57.666,-1.054000,1.421000,141.501000,-0.005500,-0.325800,0.116400,0.254000,0.166000,-10.112000,-0.000207,0.000386,-0.003308
1764077397689229075,2025-11-25 18:59:57.687,-1.054000,1.419000,141.497000,-0.007100,-0.316500,0.115200,0.239000,0.196000,-10.153000,0.001524,-0.000078,-0.003543
1764077397714174797,2025-11-25 18:59:57.712,-1.055000,1.420000,141.492000,-0.008200,-0.328600,0.117300,0.262000,0.170000,-10.093000,0.000759,0.000592,-0.003048
1764077397738340982,2025-11-25 18:59:57.737,-1.055000,1.419000,141.486000,-0.006400,-0.326800,0.115300,0.235000,0.200000,-10.130000,-0.000989,0.000187,-0.004752
1764077397763828186,2025-11-25 18:59:57.762,-1.055000,1.420000,141.482000,-0.007300,-0.323000,0.110000,0.272000,0.197000,-10.095000,0.000140,0.000956,-0.003025
1764077397787976649,2025-11-25 18:59:57.786,-1.053000,1.420000,141.477000,-0.006400,-0.326800,0.116300,0.239000,0.189000,-10.126000,0.001227,0.000030,-0.003184
1764077397815208927,2025-11-25 18:59:57.813,-1.053000,1.419000,141.473000,-0.009000,-0.323900,0.113100,0.269000,0.201000,-10.136000,0.000535,0.000107,-0.002644
1764077397838389204,2025-11-25 18:59:57.837,-1.052000,1.421000,141.469000,-0.007300,-0.323000,0.112100,0.245000,0.200000,-10.165000,0.001316,0.000128,-0.004774
1764077397864111056,2025-11-25 18:59:57.862,-1.051000,1.418000,141.464000,-0.006400,-0.324000,0.113200,0.253000,0.174000,-10.104000,0.001182,-0.000065,-0.003871
1764077397889037352,2025-11-25 18:59:57.887,-1.049000,1.420000,141.460000,-0.008200,-0.325800,0.115200,0.243000,0.182000,-10.121000,0.000037,0.000310,-0.003225
1764077397914341908,2025-11-25 18:59:57.912,-1.049000,1.420000,141.456000,-0.006300,-0.320200,0.115200,0.253000,0.189000,-10.129000,0.000570,0.001517,-0.002348
1764077397938080204,2025-11-25 18:59:57.936,-1.047000,1.421000,141.451000,-0.005400,-0.321200,0.114300,0.274000,0.155000,-10.144000,-0.000334,0.000394,-0.003379
1764077397967423297,2025-11-25 18:59:57.966,-1.045000,1.423000,141.448000,-0.004700,-0.326800,0.114300,0.246000,0.169000,-10.117000,-0.000315,-0.000108,-0.002061
1764077397989292538,2025-11-25 18:59:57.987,-1.045000,1.422000,141.445000,-0.008200,-0.325800,0.116200,0.235000,0.191000,-10.120000,0.000230,0.000215,-0.002613
1764077398015267204,2025-11-25 18:59:58.013,-1.046000,1.424000,141.441000,-0.006300,-0.319300,0.115200,0.285000,0.183000,-10.116000,-0.000079,-0.000195,-0.002921
1764077398038967686,2025-11-25 18:59:58.037,-1.046000,1.423000,141.438000,-0.007300,-0.324900,0.115200,0.253000,0.184000,-10.101000,0.001035,-0.000084,-0.002809
1764077398063926186,2025-11-25 18:59:58.062,-1.046000,1.423000,141.433000,-0.005600,-0.327700,0.117400,0.270000,0.202000,-10.122000,0.000614,0.000437,-0.002735
1764077398090821167,2025-11-25 18:59:58.089,-1.046000,1.425000,141.429000,-0.003600,-0.317500,0.112200,0.249000,0.171000,-10.122000,-0.000113,0.000584,-0.003411
1764077398116178093,2025-11-25 18:59:58.115,-1.047000,1.424000,141.427000,-0.007300,-0.326700,0.115200,0.270000,0.200000,-10.116000,-0.000286,0.000616,-0.003033
1764077398139629371,2025-11-25 18:59:58.138,-1.046000,1.426000,141.423000,-0.009000,-0.324800,0.115100,0.266000,0.171000,-10.096000,0.000426,-0.000146,-0.003004
1764077398163647112,2025-11-25 18:59:58.162,-1.048000,1.426000,141.419000,-0.004500,-0.317500,0.113200,0.230000,0.198000,-10.157000,-0.000529,0.000571,-0.003603
1764077398232208000,2025-11-25 18:59:58.231,-1.047000,1.427000,141.410000,-0.007300,-0.324900,0.112100,0.247000,0.191000,-10.112000,0.000058,0.000197,-0.003990
1764077398240446093,2025-11-25 18:59:58.239,-1.047000,1.426000,141.406000,-0.006400,-0.325800,0.116300,0.247000,0.179000,-10.126000,-0.000279,-0.001213,-0.002818
1764077398265043686,2025-11-25 18:59:58.263,-1.047000,1.426000,141.400000,-0.007300,-0.324900,0.119400,0.261000,0.186000,-10.087000,-0.000885,-0.001207,-0.004194
1764077398288969352,2025-11-25 18:59:58.287,-1.047000,1.424000,141.395000,-0.006400,-0.324900,0.115300,0.227000,0.194000,-10.126000,-0.000981,0.000462,-0.004012
1764077398313698574,2025-11-25 18:59:58.312,-1.047000,1.425000,141.389000,-0.006400,-0.325800,0.117400,0.256000,0.180000,-10.089000,0.000220,-0.001078,-0.004118
1764077398337516611,2025-11-25 18:59:58.336,-1.047000,1.424000,141.385000,-0.006400,-0.324000,0.117300,0.241000,0.178000,-10.123000,-0.000077,-0.000487,-0.003294
1764077398363696389,2025-11-25 18:59:58.362,-1.047000,1.423000,141.381000,-0.006400,-0.324900,0.118400,0.287000,0.186000,-10.115000,0.000336,-0.000024,-0.003653
1764077398387694426,2025-11-25 18:59:58.386,-1.047000,1.424000,141.377000,-0.007400,-0.330500,0.117300,0.261000,0.178000,-10.122000,-0.001087,-0.001238,-0.004136
1764077398413653797,2025-11-25 18:59:58.412,-1.048000,1.420000,141.372000,-0.004700,-0.326800,0.115400,0.246000,0.182000,-10.146000,0.000764,-0.001470,-0.002531
1764077398438190037,2025-11-25 18:59:58.436,-1.046000,1.422000,141.367000,-0.006400,-0.326800,0.115300,0.260000,0.168000,-10.108000,-0.000125,-0.000483,-0.003477
1764077398463703834,2025-11-25 18:59:58.462,-1.047000,1.420000,141.362000,-0.006400,-0.324900,0.118400,0.231000,0.194000,-10.109000,0.000194,-0.000273,-0.004055
1764077398487899037,2025-11-25 18:59:58.486,-1.046000,1.419000,141.358000,-0.007300,-0.323900,0.115200,0.259000,0.182000,-10.121000,0.001334,-0.000736,-0.002947
1764077398515102945,2025-11-25 18:59:58.513,-1.046000,1.420000,141.354000,-0.007300,-0.326700,0.117300,0.250000,0.196000,-10.119000,0.000292,-0.000795,-0.003406
1764077398539372574,2025-11-25 18:59:58.537,-1.047000,1.419000,141.351000,-0.007300,-0.324000,0.113200,0.246000,0.197000,-10.149000,-0.000578,-0.000245,-0.003677
1764077398563822093,2025-11-25 18:59:58.562,-1.047000,1.420000,141.346000,-0.004400,-0.313700,0.111100,0.253000,0.174000,-10.097000,-0.000656,0.000995,-0.003224
1764077398587911130,2025-11-25 18:59:58.586,-1.047000,1.419000,141.343000,-0.006300,-0.320200,0.111100,0.247000,0.183000,-10.120000,0.000956,-0.000315,-0.001679
1764077398614025445,2025-11-25 18:59:58.612,-1.047000,1.419000,141.339000,-0.007200,-0.319300,0.115200,0.250000,0.169000,-10.144000,0.001038,-0.000126,-0.003436
1764077398640202685,2025-11-25 18:59:58.638,-1.046000,1.419000,141.333000,-0.005500,-0.322100,0.115300,0.223000,0.191000,-10.129000,0.002196,0.000538,-0.002981
1764077398663702111,2025-11-25 18:59:58.662,-1.046000,1.417000,141.328000,-0.008200,-0.324900,0.116200,0.249000,0.182000,-10.129000,0.001086,-0.000809,-0.004770
1764077398687275500,2025-11-25 18:59:58.686,-1.045000,1.418000,141.325000,-0.006400,-0.324000,0.118400,0.248000,0.182000,-10.175000,0.001357,0.000195,-0.002350
1764077398713210537,2025-11-25 18:59:58.711,-1.045000,1.417000,141.320000,-0.005600,-0.327700,0.115300,0.243000,0.191000,-10.114000,0.000206,0.000256,-0.002660
1764077398739553815,2025-11-25 18:59:58.737,-1.044000,1.418000,141.317000,-0.005500,-0.323100,0.113200,0.277000,0.168000,-10.122000,-0.000012,0.000424,-0.003173
1764077398766898185,2025-11-25 18:59:58.765,-1.044000,1.419000,141.312000,-0.005600,-0.326800,0.115300,0.239000,0.199000,-10.118000,0.000639,0.000692,-0.002520
1764077398788150722,2025-11-25 18:59:58.786,-1.044000,1.418000,141.309000,-0.005400,-0.319300,0.111100,0.282000,0.167000,-10.152000,-0.000205,0.000028,-0.001969
1764077398815080019,2025-11-25 18:59:58.813,-1.042000,1.420000,141.304000,-0.003700,-0.324000,0.113300,0.251000,0.222000,-10.153000,0.000337,0.000203,-0.002891
1764077398839597056,2025-11-25 18:59:58.837,-1.043000,1.419000,141.299000,-0.004600,-0.324900,0.112300,0.247000,0.201000,-10.117000,0.000159,0.001263,-0.003041
1764077398863516574,2025-11-25 18:59:58.862,-1.043000,1.421000,141.295000,-0.005500,-0.324000,0.113200,0.254000,0.184000,-10.129000,-0.000204,0.000407,-0.002347
1764077398888485315,2025-11-25 18:59:58.887,-1.042000,1.420000,141.291000,-0.004600,-0.320300,0.108100,0.227000,0.197000,-10.144000,-0.000365,-0.000209,-0.003598
1764077398913388093,2025-11-25 18:59:58.911,-1.041000,1.420000,141.287000,-0.004700,-0.325900,0.114300,0.279000,0.188000,-10.115000,-0.000166,-0.000151,-0.003192
1764077398939925167,2025-11-25 18:59:58.938,-1.042000,1.422000,141.282000,-0.005400,-0.323900,0.128800,0.249000,0.160000,-10.105000,-0.001159,0.000039,-0.003079
1764077398963579167,2025-11-25 18:59:58.962,-1.042000,1.422000,141.277000,-0.006300,-0.321200,0.114200,0.250000,0.180000,-10.164000,-0.000656,0.000583,-0.002553
1764077398988030778,2025-11-25 18:59:58.986,-1.044000,1.422000,141.274000,-0.007300,-0.323000,0.113100,0.228000,0.188000,-10.116000,-0.001026,0.001083,-0.003353
1764077399015839852,2025-11-25 18:59:59.014,-1.046000,1.423000,141.271000,-0.003700,-0.324900,0.116400,0.227000,0.176000,-10.120000,-0.001115,0.000709,-0.002046
1764077399038549148,2025-11-25 18:59:59.037,-1.047000,1.422000,141.266000,-0.004500,-0.321200,0.117400,0.285000,0.166000,-10.124000,-0.001019,0.000806,-0.003474
1764077399065936944,2025-11-25 18:59:59.063,-1.047000,1.424000,141.263000,-0.007200,-0.319300,0.115200,0.240000,0.172000,-10.107000,-0.002283,0.000499,-0.002095
1764077399092104981,2025-11-25 18:59:59.091,-1.049000,1.423000,141.260000,-0.004700,-0.327700,0.111300,0.262000,0.168000,-10.116000,-0.001624,-0.000076,-0.003007
1764077399116325259,2025-11-25 18:59:59.114,-1.049000,1.425000,141.256000,-0.004500,-0.320300,0.118400,0.251000,0.173000,-10.134000,-0.001623,-0.000090,-0.003223
1764077399138239259,2025-11-25 18:59:59.137,-1.050000,1.424000,141.252000,-0.006400,-0.324900,0.113200,0.236000,0.181000,-10.112000,-0.001119,-0.000016,-0.003374
1764077399164760148,2025-11-25 18:59:59.163,-1.051000,1.424000,141.249000,-0.005500,-0.323000,0.118400,0.260000,0.172000,-10.161000,-0.000429,0.000376,-0.003418
1764077399230904222,2025-11-25 18:59:59.229,-1.053000,1.422000,141.240000,-0.004500,-0.318400,0.114300,0.265000,0.185000,-10.128000,-0.000940,0.001260,-0.002427
1764077399239195815,2025-11-25 18:59:59.238,-1.054000,1.423000,141.236000,-0.004600,-0.324000,0.118500,0.243000,0.179000,-10.164000,-0.000556,-0.000879,-0.002728
1764077399263569185,2025-11-25 18:59:59.262,-1.055000,1.422000,141.232000,-0.006400,-0.325800,0.116300,0.243000,0.201000,-10.110000,-0.000918,0.000347,-0.002327
1764077399290350963,2025-11-25 18:59:59.288,-1.056000,1.422000,141.229000,-0.004700,-0.329600,0.117500,0.255000,0.199000,-10.105000,-0.000929,0.000015,-0.002655
1764077399312302203,2025-11-25 18:59:59.311,-1.055000,1.420000,141.226000,-0.007300,-0.325800,0.117300,0.239000,0.188000,-10.145000,0.000451,-0.000525,-0.001682
1764077399339801926,2025-11-25 18:59:59.337,-1.054000,1.419000,141.223000,-0.004600,-0.325900,0.117500,0.235000,0.193000,-10.143000,-0.000257,0.000244,-0.002977
1764077399364070870,2025-11-25 18:59:59.362,-1.054000,1.419000,141.218000,-0.003800,-0.328700,0.119600,0.259000,0.202000,-10.137000,0.001379,-0.000403,-0.002608
1764077399388859796,2025-11-25 18:59:59.387,-1.053000,1.418000,141.214000,-0.005500,-0.324000,0.115300,0.250000,0.203000,-10.109000,0.000109,-0.000500,-0.002932
1764077399414009222,2025-11-25 18:59:59.412,-1.053000,1.418000,141.209000,-0.004700,-0.326800,0.116400,0.281000,0.190000,-10.158000,0.000665,-0.000274,-0.001877
1764077399438017759,2025-11-25 18:59:59.436,-1.051000,1.417000,141.205000,-0.005600,-0.325900,0.108100,0.249000,0.205000,-10.166000,0.002061,0.000612,-0.002662
1764077399463953814,2025-11-25 18:59:59.462,-1.050000,1.417000,141.201000,-0.005400,-0.322100,0.117400,0.284000,0.194000,-10.122000,0.000597,-0.000435,-0.002386
1764077399487883166,2025-11-25 18:59:59.486,-1.048000,1.416000,141.197000,-0.005500,-0.325900,0.115300,0.256000,0.191000,-10.128000,0.000570,-0.000629,-0.001503
1764077399513926685,2025-11-25 18:59:59.512,-1.046000,1.415000,141.194000,-0.005400,-0.321200,0.115300,0.263000,0.192000,-10.132000,0.001832,0.000057,-0.002784
1764077399539439963,2025-11-25 18:59:59.537,-1.044000,1.415000,141.190000,-0.005500,-0.325900,0.117400,0.223000,0.179000,-10.123000,0.000768,-0.001037,-0.003197
1764077399563480833,2025-11-25 18:59:59.562,-1.042000,1.412000,141.188000,-0.006400,-0.325800,0.115300,0.222000,0.199000,-10.094000,0.000910,-0.000006,-0.002196
1764077399587832351,2025-11-25 18:59:59.586,-1.042000,1.413000,141.184000,-0.005500,-0.322100,0.113200,0.287000,0.189000,-10.089000,0.000935,0.000053,-0.002251
1764077399614972259,2025-11-25 18:59:59.613,-1.040000,1.414000,141.179000,-0.007200,-0.321200,0.116200,0.239000,0.189000,-10.095000,0.001227,-0.000748,-0.002672
1764077399639552314,2025-11-25 18:59:59.637,-1.039000,1.413000,141.175000,-0.004700,-0.325900,0.114400,0.262000,0.193000,-10.121000,0.001281,0.000674,-0.002130
1764077399664208574,2025-11-25 18:59:59.662,-1.037000,1.414000,141.171000,-0.005300,-0.311900,0.111100,0.238000,0.199000,-10.125000,0.000521,-0.000228,-0.003565
1764077399688900722,2025-11-25 18:59:59.687,-1.037000,1.413000,141.169000,-0.006300,-0.323000,0.120500,0.225000,0.169000,-10.119000,0.000709,0.000172,-0.002436
1764077399712242814,2025-11-25 18:59:59.710,-1.035000,1.414000,141.166000,-0.005500,-0.326800,0.118500,0.253000,0.192000,-10.146000,0.000670,0.000661,-0.002259
1764077399739323481,2025-11-25 18:59:59.736,-1.034000,1.415000,141.164000,-0.005600,-0.327700,0.117400,0.221000,0.192000,-10.077000,-0.000494,0.000644,-0.003622
1764077399765781685,2025-11-25 18:59:59.763,-1.035000,1.416000,141.159000,-0.005400,-0.319300,0.116300,0.252000,0.171000,-10.136000,-0.000720,0.001503,-0.002455
1764077399789734351,2025-11-25 18:59:59.788,-1.035000,1.417000,141.154000,-0.006400,-0.325800,0.115300,0.246000,0.185000,-10.108000,0.000298,0.001042,-0.001346
1764077399815031555,2025-11-25 18:59:59.813,-1.036000,1.417000,141.151000,-0.005500,-0.324900,0.115300,0.245000,0.198000,-10.134000,-0.000052,0.000870,-0.002335
1764077399839470536,2025-11-25 18:59:59.837,-1.037000,1.418000,141.147000,-0.004600,-0.322200,0.111200,0.270000,0.167000,-10.121000,-0.001045,0.000646,-0.002631
1764077399864368388,2025-11-25 18:59:59.863,-1.039000,1.419000,141.144000,-0.006400,-0.323100,0.113200,0.243000,0.202000,-10.107000,-0.000435,0.000158,-0.002146
1764077399888185796,2025-11-25 18:59:59.886,-1.040000,1.421000,141.140000,-0.005500,-0.325900,0.115300,0.258000,0.170000,-10.089000,-0.000587,0.000375,-0.001541
1764077399913611907,2025-11-25 18:59:59.911,-1.040000,1.421000,141.137000,-0.004400,-0.311900,0.111100,0.237000,0.172000,-10.139000,0.000205,-0.000153,-0.002153
1764077399938734388,2025-11-25 18:59:59.937,-1.041000,1.420000,141.134000,-0.005500,-0.323100,0.114300,0.252000,0.166000,-10.112000,0.000205,-0.000031,-0.001681
1764077399963538999,2025-11-25 18:59:59.962,-1.042000,1.422000,141.131000,-0.007300,-0.326800,0.112200,0.252000,0.182000,-10.099000,-0.001683,0.000806,-0.001605
1764077399987646425,2025-11-25 18:59:59.986,-1.045000,1.421000,141.128000,-0.005500,-0.324900,0.114300,0.213000,0.204000,-10.125000,-0.000997,0.000389,-0.002083
1764077400015444073,2025-11-25 19:00:00.013,-1.047000,1.421000,141.125000,-0.004700,-0.327800,0.111300,0.273000,0.176000,-10.131000,-0.000725,-0.000212,-0.002118
1764077400039731351,2025-11-25 19:00:00.037,-1.048000,1.422000,141.121000,-0.004700,-0.326800,0.112300,0.263000,0.198000,-10.131000,-0.001358,-0.000633,-0.002045
1764077400061985018,2025-11-25 19:00:00.060,-1.051000,1.422000,141.116000,-0.007200,-0.319300,0.114200,0.282000,0.194000,-10.100000,-0.000685,-0.000145,-0.002184
1764077400090774536,2025-11-25 19:00:00.089,-1.052000,1.423000,141.113000,-0.005600,-0.326800,0.114300,0.232000,0.188000,-10.131000,-0.001406,-0.000979,-0.003088
1764077400116065592,2025-11-25 19:00:00.115,-1.053000,1.421000,141.109000,-0.002900,-0.325900,0.116500,0.252000,0.177000,-10.116000,-0.000929,-0.001136,-0.001949
1764077400139429573,2025-11-25 19:00:00.138,-1.053000,1.422000,141.108000,-0.005600,-0.325900,0.106000,0.246000,0.180000,-10.101000,0.000066,-0.000699,-0.001064
1764077400162896166,2025-11-25 19:00:00.161,-1.054000,1.420000,141.104000,-0.003800,-0.326800,0.115400,0.224000,0.208000,-10.152000,0.000353,-0.001287,-0.002189
1764077400232132110,2025-11-25 19:00:00.231,-1.055000,1.419000,141.098000,-0.004600,-0.324000,0.116400,0.246000,0.185000,-10.131000,0.000744,-0.000340,-0.001743
1764077400240382462,2025-11-25 19:00:00.239,-1.055000,1.416000,141.093000,-0.003700,-0.320300,0.114400,0.271000,0.195000,-10.143000,0.000555,-0.000913,-0.002725
1764077400266458388,2025-11-25 19:00:00.264,-1.054000,1.417000,141.090000,-0.006200,-0.315600,0.113200,0.251000,0.184000,-10.148000,0.000381,0.000766,-0.001183
1764077400291192073,2025-11-25 19:00:00.289,-1.053000,1.416000,141.087000,-0.003800,-0.327800,0.113400,0.245000,0.197000,-10.110000,0.001240,0.000227,-0.003888
1764077400312948944,2025-11-25 19:00:00.311,-1.051000,1.416000,141.084000,-0.003600,-0.319400,0.117500,0.261000,0.155000,-10.110000,0.000660,0.000057,-0.002238
1764077400337415851,2025-11-25 19:00:00.335,-1.049000,1.415000,141.080000,-0.003900,-0.328700,0.111300,0.221000,0.194000,-10.129000,-0.000106,0.000977,-0.002260
1764077400363322925,2025-11-25 19:00:00.361,-1.050000,1.414000,141.076000,-0.005500,-0.322100,0.115300,0.257000,0.208000,-10.104000,0.000612,-0.000490,-0.002881
1764077400388266203,2025-11-25 19:00:00.386,-1.047000,1.415000,141.074000,-0.002900,-0.326800,0.116500,0.236000,0.183000,-10.121000,0.001667,-0.001287,-0.001796
1764077400413778369,2025-11-25 19:00:00.412,-1.047000,1.413000,141.072000,-0.002900,-0.325900,0.117600,0.252000,0.197000,-10.129000,-0.000437,-0.000033,-0.001613
1764077400438077036,2025-11-25 19:00:00.436,-1.046000,1.413000,141.067000,-0.003800,-0.326800,0.118600,0.269000,0.169000,-10.085000,0.000633,-0.000591,-0.002197
1764077400463526814,2025-11-25 19:00:00.462,-1.045000,1.412000,141.063000,-0.004700,-0.327700,0.116400,0.221000,0.197000,-10.136000,0.000419,-0.000885,-0.002671
1764077400489434573,2025-11-25 19:00:00.488,-1.044000,1.411000,141.061000,-0.004700,-0.329600,0.118500,0.242000,0.192000,-10.149000,0.001642,0.000641,-0.001319
1764077400513750221,2025-11-25 19:00:00.512,-1.042000,1.411000,141.059000,-0.004400,-0.311900,0.112200,0.240000,0.179000,-10.145000,0.000335,0.000593,-0.001900
1764077400538444573,2025-11-25 19:00:00.536,-1.042000,1.410000,141.056000,-0.005500,-0.325900,0.115400,0.258000,0.190000,-10.117000,-0.000487,0.000853,-0.002308
1764077400562842203,2025-11-25 19:00:00.561,-1.042000,1.411000,141.053000,-0.002700,-0.317500,0.112300,0.265000,0.200000,-10.099000,0.000137,-0.000062,-0.002134
1764077400587570221,2025-11-25 19:00:00.586,-1.041000,1.410000,141.049000,-0.003800,-0.328700,0.118600,0.237000,0.169000,-10.091000,-0.000126,0.000094,-0.001798
1764077400613340610,2025-11-25 19:00:00.611,-1.041000,1.412000,141.048000,-0.002900,-0.325000,0.113400,0.253000,0.185000,-10.124000,0.000275,0.000842,-0.001780
1764077400639534110,2025-11-25 19:00:00.638,-1.039000,1.414000,141.045000,-0.002900,-0.326800,0.116500,0.259000,0.182000,-10.156000,0.000016,-0.000447,-0.003116
1764077400663097499,2025-11-25 19:00:00.661,-1.040000,1.413000,141.042000,-0.005500,-0.324000,0.115300,0.228000,0.167000,-10.150000,-0.001115,0.000680,-0.002092
1764077400688679684,2025-11-25 19:00:00.687,-1.040000,1.412000,141.038000,-0.003700,-0.321300,0.107100,0.179000,0.211000,-10.155000,-0.001149,0.000037,-0.002424
1764077400712809314,2025-11-25 19:00:00.711,-1.041000,1.408000,141.035000,-0.004600,-0.322200,0.112300,0.292000,0.330000,-10.122000,-0.001318,-0.004359,-0.001764
1764077400739236758,2025-11-25 19:00:00.737,-1.042000,1.398000,141.031000,-0.005400,-0.321200,0.113200,0.323000,0.225000,-10.083000,0.000187,-0.009763,-0.001818
1764077400762427110,2025-11-25 19:00:00.761,-1.042000,1.382000,141.030000,-0.002900,-0.324100,0.110300,0.205000,0.175000,-10.134000,0.000026,-0.011356,-0.001503
1764077400787617166,2025-11-25 19:00:00.786,-1.044000,1.364000,141.028000,-0.003800,-0.325000,0.115400,0.234000,0.163000,-10.162000,-0.000368,-0.012712,-0.002946
1764077400813251703,2025-11-25 19:00:00.811,-1.045000,1.344000,141.026000,-0.004500,-0.316500,0.116400,0.236000,0.224000,-10.130000,-0.001252,-0.014977,-0.002111
1764077400839537091,2025-11-25 19:00:00.837,-1.047000,1.322000,141.025000,-0.005400,-0.321200,0.114300,0.174000,0.216000,-10.114000,-0.001378,-0.015484,-0.000687
1764077400862233758,2025-11-25 19:00:00.861,-1.048000,1.300000,141.023000,-0.002800,-0.320300,0.114400,0.199000,0.197000,-10.126000,-0.000227,-0.015618,-0.001383
1764077400887834277,2025-11-25 19:00:00.886,-1.049000,1.272000,141.022000,-0.004500,-0.318400,0.116400,0.152000,0.219000,-10.127000,-0.001089,-0.019823,-0.000784
1764077400913703277,2025-11-25 19:00:00.912,-1.051000,1.232000,141.022000,-0.004600,-0.324000,0.115400,0.124000,0.238000,-10.162000,-0.001692,-0.031510,-0.000504
1764077400937673888,2025-11-25 19:00:00.936,-1.053000,1.182000,141.021000,-0.002900,-0.324100,0.114400,0.103000,0.202000,-10.151000,-0.000208,-0.037649,-0.001340
1764077400961684999,2025-11-25 19:00:00.960,-1.053000,1.129000,141.021000,-0.004700,-0.325000,0.112300,0.120000,0.156000,-10.195000,-0.000011,-0.035587,0.000912
1764077400990053869,2025-11-25 19:00:00.988,-1.055000,1.073000,141.022000,-0.002900,-0.325000,0.115500,0.063000,0.189000,-10.174000,-0.000782,-0.038837,-0.000559
1764077401016046221,2025-11-25 19:00:01.014,-1.057000,0.995000,141.025000,-0.004700,-0.327700,0.117500,-0.079000,0.264000,-10.086000,-0.001816,-0.058220,0.001640
1764077401039348610,2025-11-25 19:00:01.038,-1.058000,0.896000,141.026000,-0.001800,-0.313800,0.114400,-0.152000,0.112000,-9.999000,0.000154,-0.072852,-0.000547
1764077401062983147,2025-11-25 19:00:01.061,-1.060000,0.799000,141.026000,-0.001200,-0.327800,0.117700,-0.080000,0.076000,-10.138000,0.000025,-0.069797,0.000854
1764077401089220073,2025-11-25 19:00:01.087,-1.061000,0.699000,141.028000,-0.004400,-0.311900,0.114300,-0.082000,0.009000,-10.303000,-0.002710,-0.074964,-0.000384
1764077401114194851,2025-11-25 19:00:01.112,-1.065000,0.583000,141.034000,-0.000200,-0.326000,0.117700,-0.170000,0.162000,-10.387000,-0.002298,-0.085436,0.002865
1764077401139358295,2025-11-25 19:00:01.138,-1.067000,0.456000,141.039000,-0.002000,-0.325900,0.113500,-0.543000,0.059000,-10.309000,-0.003634,-0.083092,0.006250
1764077401163775517,2025-11-25 19:00:01.162,-1.068000,0.339000,141.044000,-0.002000,-0.325900,0.115500,-0.427000,0.190000,-10.173000,-0.000515,-0.079453,0.004411
1764077401230083999,2025-11-25 19:00:01.228,-1.069000,0.110000,141.056000,-0.001000,-0.322200,0.116600,-0.410000,0.224000,-9.970000,0.002741,-0.079336,0.001459
1764077401238370425,2025-11-25 19:00:01.237,-1.070000,0.009000,141.064000,0.003500,-0.314800,0.116800,-0.409000,0.418000,-10.077000,0.003998,-0.063655,0.003686
1764077401266303887,2025-11-25 19:00:01.265,-1.068000,-0.068000,141.069000,0.000900,-0.316600,0.119700,-0.448000,0.061000,-10.222000,0.002192,-0.046899,0.004658
1764077401289497110,2025-11-25 19:00:01.287,-1.067000,-0.133000,141.078000,-0.001100,-0.324100,0.110400,-0.519000,0.134000,-10.094000,0.003062,-0.040903,0.003778
1764077401311819702,2025-11-25 19:00:01.310,-1.066000,-0.180000,141.089000,0.001500,-0.326900,0.119900,-0.531000,0.050000,-10.041000,-0.000307,-0.027953,0.012960
1764077401338558721,2025-11-25 19:00:01.337,-1.064000,-0.198000,141.101000,0.002500,-0.323200,0.113700,-0.561000,0.125000,-10.162000,0.002285,-0.002754,0.011028
1764077401363353610,2025-11-25 19:00:01.361,-1.061000,-0.194000,141.112000,0.002500,-0.325100,0.119900,-0.558000,0.250000,-10.177000,0.002187,0.007392,0.010502
1764077401388014721,2025-11-25 19:00:01.386,-1.057000,-0.175000,141.124000,0.003300,-0.325100,0.121000,-0.491000,0.138000,-10.035000,0.001093,0.018938,0.012201
1764077401413139869,2025-11-25 19:00:01.411,-1.055000,-0.137000,141.137000,0.001500,-0.326900,0.117800,-0.473000,0.195000,-9.902000,0.003823,0.035467,0.010243
1764077401439550054,2025-11-25 19:00:01.437,-1.051000,-0.074000,141.151000,0.001500,-0.326900,0.116800,-0.479000,0.300000,-10.113000,0.001402,0.045666,0.012618
1764077401463114647,2025-11-25 19:00:01.461,-1.046000,0.001000,141.165000,0.001600,-0.324100,0.113600,-0.284000,0.058000,-10.164000,0.003826,0.053475,0.014697
1764077401486902406,2025-11-25 19:00:01.485,-1.043000,0.086000,141.183000,-0.000300,-0.328800,0.112600,-0.352000,0.212000,-9.991000,0.003223,0.064331,0.013239
1764077401514275072,2025-11-25 19:00:01.512,-1.038000,0.188000,141.202000,-0.001000,-0.322200,0.116600,-0.377000,0.213000,-10.094000,0.003523,0.075835,0.019367
1764077401538512961,2025-11-25 19:00:01.537,-1.034000,0.297000,141.222000,-0.000200,-0.325000,0.114600,-0.328000,0.054000,-10.136000,0.002651,0.079251,0.017348
1764077401563138943,2025-11-25 19:00:01.561,-1.031000,0.405000,141.247000,-0.001100,-0.324100,0.115600,-0.295000,0.227000,-10.061000,0.003477,0.073624,0.017570
1764077401587483609,2025-11-25 19:00:01.586,-1.028000,0.516000,141.271000,-0.003700,-0.321200,0.116500,-0.246000,0.199000,-10.028000,0.000637,0.078754,0.021011
1764077401613271776,2025-11-25 19:00:01.611,-1.027000,0.630000,141.295000,-0.003700,-0.322200,0.116500,-0.094000,0.197000,-10.079000,0.000171,0.077093,0.019325
1764077401639700998,2025-11-25 19:00:01.638,-1.028000,0.736000,141.323000,-0.003700,-0.323100,0.115400,-0.095000,0.344000,-10.105000,0.001223,0.069750,0.016699
1764077401663043535,2025-11-25 19:00:01.661,-1.027000,0.832000,141.349000,-0.005400,-0.322100,0.117400,-0.096000,0.213000,-10.128000,-0.000645,0.067842,0.022122
1764077401686995183,2025-11-25 19:00:01.685,-1.026000,0.921000,141.378000,-0.003700,-0.324000,0.113400,-0.035000,0.052000,-9.977000,0.000714,0.061184,0.021459
1764077401712811202,2025-11-25 19:00:01.711,-1.027000,0.999000,141.411000,-0.004700,-0.326800,0.115400,0.111000,0.342000,-10.149000,-0.001522,0.047961,0.023216
1764077401737583165,2025-11-25 19:00:01.736,-1.028000,1.058000,141.444000,-0.006200,-0.312800,0.113100,-0.181000,0.122000,-10.169000,-0.001130,0.035810,0.024659
1764077401762984258,2025-11-25 19:00:01.761,-1.030000,1.102000,141.480000,-0.007300,-0.325800,0.118400,0.024000,0.147000,-10.163000,-0.001461,0.028772,0.023191
1764077401787004072,2025-11-25 19:00:01.785,-1.031000,1.137000,141.517000,-0.007300,-0.324900,0.117300,0.117000,0.152000,-10.108000,-0.001999,0.019876,0.025831
1764077401813620832,2025-11-25 19:00:01.812,-1.033000,1.150000,141.552000,-0.008100,-0.322100,0.112100,-0.042000,0.286000,-10.250000,-0.002757,0.005489,0.027049
1764077401837815535,2025-11-25 19:00:01.836,-1.036000,1.146000,141.591000,-0.006400,-0.326800,0.115300,0.023000,0.086000,-10.171000,-0.003788,-0.005622,0.025261
1764077401863030813,2025-11-25 19:00:01.861,-1.039000,1.133000,141.631000,-0.006400,-0.326800,0.116400,0.085000,0.238000,-10.215000,-0.001042,-0.011929,0.027311
1764077401887739869,2025-11-25 19:00:01.886,-1.042000,1.107000,141.670000,-0.006200,-0.314700,0.110100,0.065000,0.209000,-10.203000,-0.003467,-0.022615,0.027283
1764077401912458683,2025-11-25 19:00:01.911,-1.044000,1.067000,141.711000,-0.008100,-0.324000,0.115200,0.071000,0.135000,-10.233000,-0.002170,-0.032799,0.027990
1764077401938793665,2025-11-25 19:00:01.937,-1.047000,1.019000,141.752000,-0.007200,-0.318400,0.112100,0.049000,0.196000,-10.238000,-0.001288,-0.031500,0.029091
1764077401963120980,2025-11-25 19:00:01.961,-1.046000,0.967000,141.791000,-0.007300,-0.325800,0.117300,-0.065000,0.151000,-10.146000,0.000147,-0.037758,0.025909
1764077401988798739,2025-11-25 19:00:01.987,-1.048000,0.905000,141.834000,-0.007300,-0.324900,0.115300,0.028000,0.180000,-10.214000,-0.001607,-0.047813,0.030807
1764077402013716294,2025-11-25 19:00:02.012,-1.048000,0.832000,141.875000,-0.008100,-0.323000,0.114200,-0.114000,0.120000,-10.289000,-0.000919,-0.051491,0.027150
1764077402038939554,2025-11-25 19:00:02.037,-1.046000,0.757000,141.916000,-0.009900,-0.323000,0.114100,-0.193000,0.173000,-10.146000,0.002395,-0.050383,0.025498
1764077402062982331,2025-11-25 19:00:02.061,-1.043000,0.682000,141.957000,-0.008000,-0.319300,0.117200,0.010000,0.309000,-10.181000,0.001201,-0.053382,0.028376
1764077402089802146,2025-11-25 19:00:02.088,-1.040000,0.604000,141.997000,-0.009100,-0.325800,0.116200,-0.204000,0.059000,-10.272000,0.000480,-0.052973,0.032137
1764077402114001387,2025-11-25 19:00:02.112,-1.037000,0.527000,142.035000,-0.008200,-0.325800,0.116300,-0.213000,0.073000,-10.036000,0.002277,-0.048918,0.024293
1764077402139024905,2025-11-25 19:00:02.137,-1.034000,0.461000,142.078000,-0.006400,-0.324900,0.118400,-0.159000,0.304000,-10.061000,0.003379,-0.043040,0.025641
1764077402161212498,2025-11-25 19:00:02.159,-1.029000,0.400000,142.115000,-0.008900,-0.320200,0.118200,-0.220000,0.211000,-10.256000,0.001846,-0.039478,0.031433
1764077402232318424,2025-11-25 19:00:02.231,-1.026000,0.301000,142.193000,-0.008100,-0.322100,0.112100,-0.303000,0.204000,-10.016000,0.000157,-0.023264,0.026590
1764077402240562646,2025-11-25 19:00:02.239,-1.024000,0.274000,142.230000,-0.006400,-0.324000,0.116300,-0.141000,0.207000,-10.162000,-0.000613,-0.014249,0.031635
1764077402263989516,2025-11-25 19:00:02.262,-1.023000,0.254000,142.267000,-0.007300,-0.325800,0.117400,-0.264000,0.148000,-10.117000,0.000600,-0.009904,0.026720
1764077402287632498,2025-11-25 19:00:02.286,-1.024000,0.244000,142.307000,-0.007300,-0.324900,0.117300,-0.280000,0.163000,-9.991000,-0.000765,-0.002231,0.026893
1764077402312237813,2025-11-25 19:00:02.311,-1.024000,0.250000,142.345000,-0.009800,-0.320200,0.114100,-0.158000,0.177000,-10.023000,-0.001918,0.008632,0.030685
1764077402337562665,2025-11-25 19:00:02.336,-1.026000,0.264000,142.383000,-0.009900,-0.323900,0.117200,-0.252000,0.212000,-10.157000,-0.001532,0.014647,0.028870
1764077402365195183,2025-11-25 19:00:02.363,-1.028000,0.285000,142.423000,-0.010800,-0.325800,0.120300,-0.181000,0.277000,-10.036000,-0.000942,0.019813,0.024650
1764077402387469313,2025-11-25 19:00:02.386,-1.030000,0.318000,142.465000,-0.009900,-0.322100,0.118200,-0.225000,0.167000,-9.985000,-0.001066,0.027215,0.032813
1764077402412394128,2025-11-25 19:00:02.411,-1.031000,0.359000,142.503000,-0.009100,-0.326700,0.118300,-0.123000,0.081000,-10.112000,-0.001474,0.031467,0.031591
1764077402437962109,2025-11-25 19:00:02.436,-1.033000,0.403000,142.545000,-0.010800,-0.323900,0.118200,-0.111000,0.148000,-10.097000,0.000019,0.031484,0.022492
1764077402463547165,2025-11-25 19:00:02.462,-1.035000,0.449000,142.590000,-0.008200,-0.325800,0.115200,-0.123000,0.298000,-10.024000,-0.001684,0.032875,0.033321
1764077402487047627,2025-11-25 19:00:02.485,-1.037000,0.501000,142.629000,-0.009900,-0.324900,0.117200,-0.004000,0.037000,-10.070000,-0.003316,0.036843,0.034154
1764077402515572868,2025-11-25 19:00:02.513,-1.039000,0.551000,142.669000,-0.012600,-0.324800,0.111900,-0.085000,-0.024000,-10.095000,-0.001635,0.033757,0.027569
1764077402539751998,2025-11-25 19:00:02.538,-1.043000,0.596000,142.714000,-0.010800,-0.324900,0.115100,0.034000,0.308000,-10.090000,-0.002844,0.032041,0.026845
1764077402563959239,2025-11-25 19:00:02.562,-1.044000,0.647000,142.755000,-0.012400,-0.317400,0.111800,0.053000,0.153000,-10.033000,-0.001296,0.040271,0.033464
1764077402587044627,2025-11-25 19:00:02.585,-1.042000,0.715000,142.796000,-0.012400,-0.312700,0.109700,0.104000,0.122000,-9.994000,0.000736,0.051203,0.027432
1764077402614360535,2025-11-25 19:00:02.612,-1.043000,0.801000,142.839000,-0.014300,-0.323900,0.115900,0.259000,0.233000,-10.079000,-0.002810,0.062827,0.029761
1764077402638265442,2025-11-25 19:00:02.637,-1.042000,0.904000,142.875000,-0.013400,-0.322900,0.113900,0.177000,0.136000,-10.085000,-0.001348,0.077197,0.027152
1764077402664018405,2025-11-25 19:00:02.662,-1.040000,1.029000,142.912000,-0.016100,-0.323800,0.113800,0.232000,0.125000,-10.122000,-0.000848,0.091816,0.028039
1764077402687031516,2025-11-25 19:00:02.685,-1.037000,1.172000,142.949000,-0.015200,-0.323800,0.118000,0.373000,0.127000,-10.173000,-0.000837,0.100127,0.030322
1764077402714400572,2025-11-25 19:00:02.712,-1.036000,1.325000,142.984000,-0.016000,-0.319200,0.114800,0.432000,0.267000,-10.159000,0.000331,0.106636,0.024155
1764077402736916164,2025-11-25 19:00:02.735,-1.033000,1.486000,143.014000,-0.016100,-0.323800,0.113800,0.503000,0.195000,-10.125000,0.001210,0.113657,0.023740
1764077402763383516,2025-11-25 19:00:02.762,-1.030000,1.651000,143.048000,-0.018000,-0.328500,0.115800,0.529000,0.148000,-10.193000,0.000512,0.117008,0.026062
1764077402786974590,2025-11-25 19:00:02.785,-1.029000,1.813000,143.083000,-0.019500,-0.319100,0.111500,0.569000,0.179000,-10.198000,-0.000128,0.112089,0.025310
1764077402815193887,2025-11-25 19:00:02.813,-1.027000,1.967000,143.116000,-0.017800,-0.321900,0.112600,0.630000,0.109000,-10.193000,0.001727,0.104427,0.022074
1764077402839596442,2025-11-25 19:00:02.837,-1.028000,2.110000,143.151000,-0.020500,-0.322800,0.113500,0.647000,0.159000,-10.189000,-0.001477,0.094403,0.023237
1764077402863974053,2025-11-25 19:00:02.862,-1.028000,2.241000,143.187000,-0.019600,-0.322800,0.113600,0.801000,0.154000,-10.277000,-0.000304,0.083146,0.021854
1764077402887273461,2025-11-25 19:00:02.885,-1.029000,2.347000,143.221000,-0.024900,-0.320900,0.112300,0.804000,0.126000,-10.261000,-0.001868,0.066886,0.022843
1764077402913630368,2025-11-25 19:00:02.912,-1.032000,2.432000,143.256000,-0.020300,-0.313500,0.110400,0.798000,0.152000,-10.138000,-0.003995,0.054068,0.022983
1764077402937802312,2025-11-25 19:00:02.936,-1.036000,2.494000,143.291000,-0.022200,-0.320000,0.110300,0.821000,0.153000,-10.150000,-0.004369,0.037508,0.021987
1764077402964295294,2025-11-25 19:00:02.962,-1.041000,2.529000,143.324000,-0.023100,-0.322800,0.114400,0.798000,0.174000,-10.205000,-0.004042,0.013779,0.021840
1764077402990934498,2025-11-25 19:00:02.989,-1.046000,2.537000,143.358000,-0.022100,-0.313500,0.111300,0.823000,0.144000,-10.273000,-0.005520,-0.005083,0.020725
1764077403016754220,2025-11-25 19:00:03.015,-1.052000,2.520000,143.392000,-0.023200,-0.323700,0.112400,0.803000,0.172000,-10.232000,-0.004719,-0.018284,0.020518
1764077403040108220,2025-11-25 19:00:03.038,-1.057000,2.480000,143.427000,-0.024900,-0.323700,0.115400,0.794000,0.169000,-10.234000,-0.005385,-0.033266,0.019735
1764077403065936423,2025-11-25 19:00:03.064,-1.064000,2.416000,143.461000,-0.022300,-0.326500,0.114500,0.721000,0.166000,-10.157000,-0.005582,-0.051497,0.021474
1764077403091796257,2025-11-25 19:00:03.090,-1.069000,2.331000,143.496000,-0.024900,-0.322700,0.113300,0.647000,0.208000,-10.134000,-0.005214,-0.064695,0.021191
1764077403116075775,2025-11-25 19:00:03.114,-1.073000,2.231000,143.530000,-0.024000,-0.322700,0.115400,0.687000,0.174000,-10.169000,-0.003521,-0.074850,0.020137
1764077403139558720,2025-11-25 19:00:03.137,-1.078000,2.118000,143.564000,-0.023100,-0.319000,0.114400,0.596000,0.217000,-10.164000,-0.004329,-0.085497,0.019453
1764077403166021146,2025-11-25 19:00:03.164,-1.082000,1.992000,143.596000,-0.022300,-0.324600,0.117600,0.554000,0.194000,-10.137000,-0.002676,-0.090096,0.019099
1764077403229605497,2025-11-25 19:00:03.228,-1.085000,1.731000,143.657000,-0.020600,-0.326500,0.113600,0.407000,0.170000,-10.088000,-0.000853,-0.092727,0.017334
1764077403237778923,2025-11-25 19:00:03.236,-1.087000,1.600000,143.685000,-0.021500,-0.325600,0.106300,0.379000,0.218000,-10.078000,-0.001048,-0.092828,0.016428
1764077403265353294,2025-11-25 19:00:03.263,-1.087000,1.474000,143.711000,-0.017900,-0.325700,0.111600,0.313000,0.226000,-10.114000,0.000192,-0.086377,0.015306
1764077403288346275,2025-11-25 19:00:03.287,-1.087000,1.357000,143.734000,-0.020500,-0.322800,0.116700,0.318000,0.172000,-10.072000,-0.000251,-0.079158,0.014959
1764077403315327738,2025-11-25 19:00:03.313,-1.086000,1.252000,143.758000,-0.019600,-0.323700,0.118800,0.224000,0.235000,-10.055000,0.000486,-0.070057,0.015234
1764077403337261108,2025-11-25 19:00:03.335,-1.084000,1.159000,143.780000,-0.017900,-0.324700,0.114700,0.197000,0.200000,-10.034000,0.001214,-0.060316,0.012882
1764077403363085571,2025-11-25 19:00:03.361,-1.083000,1.082000,143.799000,-0.018800,-0.324700,0.113700,0.167000,0.168000,-10.034000,0.000947,-0.048903,0.011463
1764077403388643627,2025-11-25 19:00:03.387,-1.081000,1.024000,143.820000,-0.018800,-0.324700,0.111600,0.153000,0.190000,-10.004000,0.001397,-0.036677,0.011842
1764077403414312145,2025-11-25 19:00:03.412,-1.078000,0.982000,143.840000,-0.020600,-0.326500,0.116700,0.197000,0.196000,-10.062000,0.001011,-0.024562,0.012173
1764077403438572849,2025-11-25 19:00:03.437,-1.075000,0.956000,143.860000,-0.020600,-0.327500,0.118800,0.142000,0.219000,-10.028000,0.002639,-0.012566,0.013467
