Timestamp,Time,Roll,Pitch,Yaw,Velocity_Increment_X,Velocity_Increment_Y,Velocity_Increment_Z,Acc_X,Acc_Y,Acc_Z,Gyro_X,Gyro_Y,Gyro_Z,Mag_X,Mag_Y,Mag_Z,Pressure
1764077388243396210,2025-11-25 18:59:48.237,0.638362,0.835734,61.376762,0.008361,0.015699,0.978689,0.093097,0.118017,9.811675,0.004003,0.000241,0.005926,0.146581,0.843608,-1.214817,100350.0000
1764077388339148691,2025-11-25 18:59:48.337,0.635844,0.839350,61.346760,0.009337,0.015687,0.978945,0.102830,0.111883,9.806207,0.002704,-0.002153,0.008378,0.147056,0.844067,-1.215794,100351.0000
1764077388439221377,2025-11-25 18:59:48.436,0.630183,0.838772,61.318871,0.009158,0.015912,0.978920,0.078321,0.116745,9.814828,-0.008366,-0.000410,0.005415,0.148025,0.843147,-1.214350,100350.0000
1764077388539430654,2025-11-25 18:59:48.536,0.628490,0.837399,61.290470,0.008999,0.015584,0.979017,0.109189,0.104033,9.813745,-0.004232,0.001042,0.007578,0.148492,0.844054,-1.216778,100346.0000
1764077388640571080,2025-11-25 18:59:48.636,0.629881,0.832490,61.258526,0.009007,0.015218,0.978911,0.108003,0.105269,9.820560,0.003177,0.000903,0.007839,0.149963,0.842719,-1.212445,100341.0000
1764077388738949080,2025-11-25 18:59:48.736,0.628158,0.826910,61.230244,0.008467,0.015397,0.979115,0.084179,0.104711,9.796361,0.000386,-0.000639,0.008810,0.147537,0.844069,-1.215801,100342.0000
1764077388838495154,2025-11-25 18:59:48.836,0.632493,0.821329,61.202698,0.008529,0.015388,0.978918,0.085345,0.090830,9.804011,-0.002661,0.002327,0.006534,0.150456,0.845109,-1.212489,100350.0000
1764077388938633636,2025-11-25 18:59:48.936,0.632198,0.819771,61.178284,0.008344,0.015345,0.978540,0.081851,0.094577,9.792053,-0.000010,0.000506,0.004949,0.149954,0.843166,-1.213897,100338.0000
1764077389038331173,2025-11-25 18:59:49.036,0.636533,0.823424,61.156147,0.008310,0.015484,0.978406,0.098373,0.086587,9.789591,0.008436,-0.002085,0.005834,0.151405,0.845551,-1.214436,100346.0000
1764077389138503247,2025-11-25 18:59:49.136,0.635973,0.825601,61.131260,0.008632,0.015726,0.978542,0.084395,0.120666,9.784558,0.001813,-0.000162,0.008158,0.152834,0.845516,-1.216383,100350.0000
1764077389237740006,2025-11-25 18:59:49.236,0.635790,0.829872,61.105080,0.008766,0.016038,0.978774,0.089447,0.164521,9.789977,-0.000041,-0.001682,0.007873,0.149954,0.845524,-1.215377,100344.0000
1764077389339965691,2025-11-25 18:59:49.337,0.632619,0.832797,61.081295,0.008860,0.015626,0.978921,0.077420,0.186377,9.765587,0.005003,-0.001078,0.006081,0.151887,0.845553,-1.214443,100349.0000
1764077389438542543,2025-11-25 18:59:49.436,0.631547,0.835306,61.054161,0.008901,0.015614,0.979083,0.075518,0.192630,9.763776,0.008051,-0.002962,0.007980,0.152373,0.845098,-1.213480,100342.0000
1764077389538678172,2025-11-25 18:59:49.536,0.627912,0.834484,61.028000,0.008981,0.015451,0.979043,0.084191,0.219515,9.756496,-0.000719,0.004073,0.007867,0.152831,0.842681,-1.214895,100346.0000
1764077389638826580,2025-11-25 18:59:49.636,0.627074,0.835171,61.006474,0.008964,0.015230,0.978915,0.089138,0.220770,9.771460,-0.003813,0.003597,0.007045,0.153343,0.846535,-1.213517,100346.0000
1764077389738549746,2025-11-25 18:59:49.736,0.626821,0.834026,60.983528,0.009031,0.015279,0.978868,0.081382,0.192813,9.791387,0.006526,0.000307,0.005591,0.154290,0.845086,-1.214472,100344.0000
1764077389838439691,2025-11-25 18:59:49.836,0.629450,0.832007,60.959801,0.008841,0.015361,0.978661,0.088130,0.155474,9.783739,0.008983,-0.002660,0.004738,0.155233,0.842681,-1.215412,100345.0000
1764077389938761820,2025-11-25 18:59:49.936,0.629238,0.828643,60.934769,0.008720,0.015212,0.978672,0.097517,0.120535,9.800343,0.002621,-0.003573,0.003976,0.154287,0.843663,-1.213968,100344.0000
1764077390038526024,2025-11-25 18:59:50.036,0.624969,0.829111,60.911777,0.008747,0.015773,0.978564,0.110390,0.105165,9.811049,-0.001976,-0.000954,0.005826,0.155247,0.844135,-1.214471,100347.0000
1764077390138428135,2025-11-25 18:59:50.136,0.626931,0.830661,60.890202,0.008665,0.015845,0.978666,0.097280,0.077838,9.793836,-0.000710,0.001086,0.003473,0.153320,0.845061,-1.215420,100347.0000
1764077390237770246,2025-11-25 18:59:50.236,0.629737,0.830385,60.867046,0.008427,0.015698,0.978815,0.106784,0.086082,9.796208,0.000530,-0.003667,0.007377,0.152837,0.845526,-1.215902,100352.0000
1764077390338892931,2025-11-25 18:59:50.336,0.626292,0.834473,60.846039,0.008675,0.015492,0.978791,0.089771,0.133149,9.795566,0.002583,-0.000078,0.007725,0.158138,0.844158,-1.214033,100341.0000
1764077390438514468,2025-11-25 18:59:50.436,0.623729,0.836003,60.825958,0.008657,0.015569,0.979004,0.090016,0.165622,9.773447,-0.002342,-0.002436,0.004528,0.156214,0.846507,-1.215485,100342.0000
1764077390538965690,2025-11-25 18:59:50.536,0.621469,0.836390,60.804401,0.009108,0.015696,0.978982,0.061058,0.191368,9.774426,0.000984,0.003929,0.007301,0.155729,0.844137,-1.214478,100348.0000
1764077390638551672,2025-11-25 18:59:50.636,0.622986,0.835150,60.783085,0.008781,0.015227,0.979087,0.055095,0.220558,9.772954,0.001443,0.001333,0.007071,0.155730,0.843670,-1.213990,100352.0000
1764077390738359820,2025-11-25 18:59:50.736,0.620026,0.834135,60.760933,0.008555,0.015321,0.978575,0.061189,0.210519,9.768527,0.002158,-0.001697,0.004415,0.157639,0.843637,-1.215944,100345.0000
1764077390839386986,2025-11-25 18:59:50.836,0.620350,0.833648,60.741199,0.008631,0.015230,0.978945,0.085744,0.196768,9.781280,-0.001720,-0.003279,0.002482,0.155737,0.845103,-1.214011,100342.0000
1764077390938869968,2025-11-25 18:59:50.936,0.621671,0.834495,60.720909,0.008495,0.015437,0.978207,0.097660,0.174460,9.779328,-0.000016,-0.002803,0.003348,0.156712,0.843725,-1.211597,100351.0000
1764077391037900745,2025-11-25 18:59:51.036,0.619486,0.837382,60.701313,0.008493,0.015282,0.978678,0.104257,0.116003,9.802531,0.006196,-0.001591,0.004151,0.158135,0.842735,-1.213529,100346.0000
1764077391137811468,2025-11-25 18:59:51.136,0.617841,0.839668,60.682125,0.008960,0.015541,0.978845,0.087201,0.090440,9.797852,0.003298,-0.004548,0.003369,0.159093,0.842729,-1.214025,100350.0000
1764077391237696893,2025-11-25 18:59:51.236,0.619921,0.839754,60.662983,0.009402,0.015384,0.978906,0.100257,0.088707,9.808382,-0.000335,0.001320,0.005488,0.158131,0.845083,-1.215491,100350.0000
1764077391338442653,2025-11-25 18:59:51.336,0.618624,0.838814,60.641438,0.009054,0.015561,0.979093,0.090882,0.091754,9.790341,-0.001460,0.002889,0.006418,0.160059,0.844157,-1.214542,100340.0000
1764077391438835190,2025-11-25 18:59:51.436,0.620399,0.836834,60.618980,0.008855,0.015298,0.979037,0.077093,0.133158,9.772416,0.002403,0.001659,0.005722,0.158127,0.842715,-1.214492,100348.0000
1764077391538425245,2025-11-25 18:59:51.536,0.624593,0.830102,60.596680,0.008601,0.015519,0.978979,0.080498,0.168717,9.776011,0.006485,0.001385,0.006423,0.159093,0.844142,-1.215009,100341.0000
1764077391638249301,2025-11-25 18:59:51.636,0.623407,0.828310,60.579166,0.008375,0.015535,0.978641,0.059121,0.200741,9.750237,0.005487,0.001403,0.004855,0.160543,0.840866,-1.212091,100344.0000
1764077391738896967,2025-11-25 18:59:51.736,0.626961,0.830030,60.562279,0.008283,0.015534,0.978412,0.051042,0.208662,9.763342,-0.005059,0.003497,0.005562,0.161029,0.844181,-1.213594,100343.0000
1764077391838828875,2025-11-25 18:59:51.836,0.626130,0.833350,60.546082,0.008295,0.015465,0.978612,0.074144,0.223727,9.773672,-0.004268,-0.000753,0.004271,0.161515,0.845139,-1.213615,100348.0000
1764077391938647837,2025-11-25 18:59:51.936,0.622512,0.839760,60.529446,0.008465,0.015847,0.978636,0.084377,0.219587,9.782703,0.001456,-0.003130,0.002715,0.160546,0.846059,-1.215060,100350.0000
1764077392038540671,2025-11-25 18:59:52.036,0.621751,0.840134,60.512203,0.008850,0.015393,0.979134,0.108021,0.175652,9.792377,0.000154,-0.003111,0.002344,0.160999,0.843632,-1.216956,100348.0000
1764077392138299597,2025-11-25 18:59:52.136,0.618473,0.839190,60.495075,0.009090,0.015634,0.979093,0.108873,0.121564,9.803405,0.000620,-0.002298,0.004504,0.162470,0.845123,-1.214593,100355.0000
1764077392237859152,2025-11-25 18:59:52.236,0.617901,0.834810,60.474686,0.009111,0.015084,0.979038,0.104959,0.095431,9.811591,0.006997,-0.001262,0.002185,0.161014,0.844140,-1.215519,100345.0000
1764077392338482948,2025-11-25 18:59:52.336,0.619754,0.830129,60.455753,0.008491,0.015060,0.979344,0.110997,0.075246,9.805084,0.002739,0.001301,0.007184,0.160512,0.840784,-1.215942,100345.0000
1764077392439475374,2025-11-25 18:59:52.436,0.622623,0.824543,60.437012,0.008475,0.015528,0.978819,0.058340,0.086808,9.785758,-0.003127,0.000420,0.003477,0.162496,0.848019,-1.213192,100352.0000
1764077392538979596,2025-11-25 18:59:52.536,0.620906,0.823890,60.418583,0.008168,0.015774,0.978568,0.077810,0.128946,9.801428,-0.000850,-0.001161,0.005489,0.163435,0.844192,-1.213629,100344.0000
1764077392638612819,2025-11-25 18:59:52.636,0.618703,0.828820,60.400497,0.008450,0.015660,0.978756,0.101329,0.182214,9.768010,0.008897,-0.001196,0.005575,0.163422,0.843216,-1.214578,100344.0000
1764077392739026948,2025-11-25 18:59:52.736,0.613606,0.832354,60.382896,0.008528,0.016068,0.978511,0.073595,0.224480,9.767927,0.001296,0.002057,0.008054,0.163901,0.842741,-1.214577,100352.0000
1764077392839358578,2025-11-25 18:59:52.836,0.608769,0.832389,60.364216,0.009082,0.015737,0.978923,0.077161,0.226296,9.765101,0.002385,0.000798,0.004174,0.164879,0.845144,-1.214147,100352.0000
1764077392938508485,2025-11-25 18:59:52.936,0.601830,0.831444,60.345966,0.009026,0.015684,0.978920,0.073783,0.217520,9.768984,-0.001624,-0.003912,0.004524,0.164403,0.844684,-1.213170,100343.0000
1764077393038080207,2025-11-25 18:59:53.036,0.600914,0.826938,60.323383,0.009101,0.015436,0.978737,0.099322,0.195331,9.782600,0.002550,-0.000979,0.003545,0.164395,0.843719,-1.213636,100353.0000
1764077393138496003,2025-11-25 18:59:53.136,0.602233,0.821888,60.304436,0.008849,0.015297,0.979075,0.080855,0.138457,9.792253,0.000642,0.001237,0.005412,0.163420,0.842739,-1.214570,100352.0000
1764077393237753411,2025-11-25 18:59:53.236,0.607576,0.820079,60.288216,0.008624,0.015348,0.979077,0.112259,0.105605,9.811857,-0.001455,0.000480,0.001610,0.164383,0.843688,-1.215080,100346.0000
1764077393338398522,2025-11-25 18:59:53.336,0.613218,0.817767,60.269993,0.008797,0.015414,0.979140,0.107031,0.096366,9.810094,-0.000047,-0.000982,0.000653,0.166316,0.842304,-1.213161,100348.0000
1764077393438444466,2025-11-25 18:59:53.436,0.612656,0.819956,60.250320,0.008503,0.015920,0.978771,0.097493,0.076444,9.809184,-0.000398,0.000150,0.004208,0.165842,0.845148,-1.214161,100348.0000
1764077393538435929,2025-11-25 18:59:53.536,0.607499,0.822480,60.229713,0.008420,0.015794,0.978892,0.076461,0.124186,9.799017,0.003030,-0.002229,0.007545,0.166324,0.844683,-1.213679,100352.0000
1764077393638425392,2025-11-25 18:59:53.636,0.596666,0.824030,60.211143,0.008523,0.015779,0.978294,0.079008,0.162509,9.773326,0.000190,0.001218,0.005660,0.166312,0.843707,-1.214628,100351.0000
1764077393738434096,2025-11-25 18:59:53.736,0.592316,0.829209,60.193577,0.008939,0.015185,0.978530,0.086710,0.192569,9.768107,-0.002809,-0.000105,0.004647,0.166320,0.844672,-1.214161,100348.0000
1764077393839691188,2025-11-25 18:59:53.836,0.588963,0.825081,60.177334,0.009083,0.015207,0.978919,0.077192,0.206870,9.774798,0.003545,-0.001785,0.001706,0.167284,0.844209,-1.213686,100350.0000
1764077393938509929,2025-11-25 18:59:53.936,0.586393,0.825464,60.160034,0.009004,0.014932,0.978822,0.061375,0.213938,9.767821,0.004244,-0.001361,0.006878,0.167288,0.846577,-1.214686,100349.0000
1764077394038465077,2025-11-25 18:59:54.036,0.587619,0.823707,60.144939,0.008570,0.015222,0.979066,0.093048,0.196999,9.788596,0.000184,0.000351,0.003717,0.167285,0.845154,-1.214182,100348.0000
1764077394138387336,2025-11-25 18:59:54.136,0.591228,0.824050,60.128048,0.008572,0.015069,0.979365,0.089669,0.144059,9.791639,0.000205,-0.001304,0.002914,0.168726,0.844683,-1.214196,100346.0000
1764077394237679003,2025-11-25 18:59:54.236,0.598906,0.828486,60.107010,0.008489,0.015880,0.979099,0.121233,0.125422,9.810147,0.004242,-0.000574,0.009042,0.167761,0.845614,-1.215159,100350.0000
1764077394338331318,2025-11-25 18:59:54.336,0.599209,0.829547,60.085358,0.008748,0.015697,0.978804,0.124851,0.098972,9.804624,0.003056,-0.000626,0.006856,0.169200,0.844665,-1.215166,100348.0000
1764077394439055725,2025-11-25 18:59:54.436,0.595506,0.832509,60.064301,0.009069,0.015911,0.978809,0.090996,0.088426,9.805354,-0.001905,0.002138,0.004411,0.169215,0.844706,-1.213241,100344.0000
1764077394538636632,2025-11-25 18:59:54.536,0.587979,0.831199,60.046776,0.009128,0.015491,0.978530,0.078651,0.108373,9.792843,0.002512,-0.000375,0.003354,0.166800,0.845142,-1.214657,100350.0000
1764077394638173428,2025-11-25 18:59:54.636,0.574766,0.829740,60.033554,0.008782,0.015781,0.978730,0.082725,0.133896,9.798460,0.002811,0.001037,0.007047,0.170662,0.844723,-1.212781,100350.0000
1764077394738515465,2025-11-25 18:59:54.736,0.575036,0.823168,60.018669,0.009083,0.015270,0.978864,0.073552,0.193235,9.774226,0.000548,0.000977,0.006568,0.169688,0.844687,-1.214211,100345.0000
1764077394839120928,2025-11-25 18:59:54.836,0.572139,0.820729,60.003887,0.008461,0.015190,0.978961,0.066457,0.226836,9.765722,-0.000621,0.002633,0.003714,0.170652,0.845637,-1.214721,100351.0000
1764077394938724817,2025-11-25 18:59:54.936,0.579983,0.818437,59.988583,0.008540,0.015168,0.978859,0.065313,0.225461,9.767138,0.000201,0.004325,0.002797,0.172564,0.844670,-1.215697,100352.0000
1764077395038207262,2025-11-25 18:59:55.036,0.586982,0.820148,59.974354,0.008552,0.015865,0.978930,0.097306,0.211379,9.780949,0.004140,-0.002192,0.001856,0.169684,0.844677,-1.214692,100352.0000
1764077395138355187,2025-11-25 18:59:55.136,0.592808,0.824299,59.957615,0.008698,0.015925,0.978725,0.107297,0.170365,9.780154,0.006279,-0.004076,0.004236,0.172573,0.844223,-1.214246,100350.0000
1764077395237688132,2025-11-25 18:59:55.236,0.594293,0.825310,59.939808,0.008926,0.015623,0.978614,0.114658,0.120940,9.802054,0.001896,-0.002727,0.006133,0.173057,0.844703,-1.214260,100343.0000
1764077395339164984,2025-11-25 18:59:55.336,0.591435,0.825344,59.923229,0.009236,0.015637,0.978852,0.117885,0.091303,9.807558,0.000406,-0.002837,0.003274,0.171613,0.846109,-1.215224,100349.0000
1764077395439180539,2025-11-25 18:59:55.436,0.586658,0.828585,59.907154,0.009277,0.015717,0.978861,0.104850,0.084506,9.816231,0.002181,0.000655,0.005681,0.170645,0.846562,-1.216180,100344.0000
1764077395538336946,2025-11-25 18:59:55.536,0.581941,0.828782,59.891171,0.008783,0.014922,0.979005,0.102370,0.097308,9.818357,0.006550,-0.000566,0.003693,0.171609,0.844686,-1.214721,100352.0000
1764077395638813354,2025-11-25 18:59:55.636,0.578718,0.825504,59.875851,0.008886,0.015200,0.978856,0.080099,0.129998,9.786861,-0.003226,0.002656,0.008116,0.171128,0.843271,-1.213729,100352.0000
1764077395738415446,2025-11-25 18:59:55.736,0.576402,0.822778,59.859097,0.008802,0.015446,0.978982,0.085333,0.191052,9.770479,0.001010,0.004273,0.006918,0.174027,0.845673,-1.213808,100358.0000
1764077395838711094,2025-11-25 18:59:55.836,0.578200,0.819539,59.843380,0.008618,0.015744,0.978934,0.072338,0.214238,9.779177,0.002867,-0.002577,0.008181,0.173523,0.841839,-1.214224,100352.0000
1764077395938647613,2025-11-25 18:59:55.936,0.581603,0.819124,59.823948,0.008454,0.015857,0.978756,0.065612,0.222758,9.777413,0.000014,-0.002329,0.005225,0.174505,0.845664,-1.214296,100347.0000
1764077396038223835,2025-11-25 18:59:56.036,0.580411,0.820924,59.809189,0.008718,0.015952,0.978674,0.096011,0.228230,9.773746,-0.004451,0.000998,0.003423,0.176427,0.845196,-1.214318,100355.0000
1764077396138542353,2025-11-25 18:59:56.136,0.576784,0.821323,59.789368,0.008812,0.015921,0.978459,0.110724,0.178734,9.798130,-0.001626,0.004567,0.002371,0.173536,0.845173,-1.214756,100354.0000
1764077396237739446,2025-11-25 18:59:56.236,0.576126,0.822927,59.773491,0.008562,0.015418,0.978591,0.088221,0.132056,9.791820,0.002643,-0.000626,0.001736,0.174007,0.844676,-1.215719,100350.0000
1764077396338826372,2025-11-25 18:59:56.336,0.572864,0.818917,59.756943,0.008672,0.015472,0.979039,0.089564,0.079779,9.813654,0.001649,0.002110,0.004855,0.174513,0.846630,-1.213829,100350.0000
1764077396438773261,2025-11-25 18:59:56.436,0.572504,0.817855,59.742325,0.008562,0.015160,0.978826,0.087897,0.088685,9.809778,0.002154,0.005441,0.005081,0.174491,0.843744,-1.214749,100350.0000
1764077396538774335,2025-11-25 18:59:56.536,0.572262,0.813948,59.724636,0.008888,0.015457,0.979022,0.084446,0.108332,9.802610,-0.004332,-0.001684,0.003786,0.176427,0.845196,-1.214318,100348.0000
1764077396638466057,2025-11-25 18:59:56.636,0.573182,0.811411,59.709991,0.008576,0.015571,0.978853,0.073398,0.144232,9.782333,0.003146,0.003204,0.001198,0.174990,0.845677,-1.213822,100348.0000
1764077396738767927,2025-11-25 18:59:56.736,0.573864,0.812225,59.695812,0.008273,0.015627,0.978782,0.075691,0.203931,9.763038,0.001843,-0.003145,0.006150,0.176427,0.845196,-1.214318,100350.0000
1764077396838670446,2025-11-25 18:59:56.836,0.568595,0.808422,59.680691,0.008689,0.015651,0.978845,0.055591,0.222571,9.767873,-0.000758,-0.002773,0.003980,0.175951,0.844736,-1.213340,100347.0000
1764077396940254149,2025-11-25 18:59:56.936,0.567959,0.807049,59.665897,0.008886,0.015766,0.978757,0.078291,0.222327,9.768545,0.001334,-0.000102,0.002005,0.176886,0.844669,-1.216724,100347.0000
1764077397038327112,2025-11-25 18:59:57.036,0.567488,0.805229,59.648201,0.008779,0.015498,0.978921,0.095325,0.207829,9.782272,0.002944,-0.000299,0.003734,0.177869,0.845670,-1.214827,100347.0000
1764077397138372723,2025-11-25 18:59:57.136,0.566574,0.806038,59.633541,0.008801,0.015445,0.978802,0.097498,0.150116,9.795066,0.005379,-0.002178,-0.000173,0.177382,0.843767,-1.214310,100351.0000
1764077397237853186,2025-11-25 18:59:57.236,0.569599,0.807141,59.619972,0.008806,0.015285,0.978971,0.114412,0.124846,9.800430,0.002333,0.001646,0.003259,0.175458,0.844703,-1.214777,100346.0000
1764077397338690797,2025-11-25 18:59:57.336,0.569479,0.806832,59.607349,0.008867,0.015538,0.979220,0.108587,0.055065,9.817916,0.002876,-0.001268,0.002731,0.176915,0.846631,-1.214347,100354.0000
1764077397439291371,2025-11-25 18:59:57.436,0.572317,0.807705,59.593052,0.008849,0.015213,0.978882,0.088749,0.070016,9.797345,0.000580,-0.002462,0.004392,0.178342,0.847064,-1.216782,100349.0000
1764077397538447575,2025-11-25 18:59:57.536,0.567394,0.806994,59.578197,0.008835,0.015618,0.978897,0.079425,0.115198,9.780031,0.001335,0.004729,0.006152,0.177863,0.843769,-1.214317,100352.0000
1764077397638182445,2025-11-25 18:59:57.636,0.562030,0.801748,59.564865,0.008461,0.015448,0.978779,0.082782,0.146849,9.790211,-0.003220,0.002664,0.005233,0.176916,0.843806,-1.212377,100346.0000
1764077397738495834,2025-11-25 18:59:57.736,0.557901,0.801390,59.553322,0.008714,0.015771,0.978885,0.070852,0.193681,9.763137,-0.005917,-0.000376,0.000733,0.176414,0.844220,-1.215265,100350.0000
1764077397838610445,2025-11-25 18:59:57.836,0.554143,0.800322,59.542347,0.008517,0.015720,0.978638,0.066805,0.233011,9.768598,0.003158,-0.000281,0.003507,0.177888,0.845721,-1.212421,100354.0000
1764077397938604649,2025-11-25 18:59:57.936,0.551944,0.803157,59.530468,0.009008,0.015455,0.978568,0.080722,0.227852,9.786991,0.004425,-0.001347,0.005215,0.178335,0.844218,-1.215775,100352.0000
1764077398038330834,2025-11-25 18:59:58.036,0.549864,0.803954,59.519859,0.008447,0.015617,0.978888,0.092037,0.191951,9.783212,0.002174,0.000459,0.002970,0.178846,0.844770,-1.212420,100348.0000
1764077398138433889,2025-11-25 18:59:58.136,0.551651,0.806996,59.506912,0.008746,0.015446,0.978771,0.107182,0.147352,9.803343,-0.003935,-0.000433,0.002264,0.178348,0.843781,-1.213842,100345.0000
1764077398237685186,2025-11-25 18:59:58.236,0.552255,0.805355,59.492664,0.008725,0.015513,0.978802,0.088984,0.110478,9.804580,-0.000526,0.003574,0.001474,0.178360,0.843812,-1.212398,100348.0000
1764077398338953797,2025-11-25 18:59:58.336,0.552131,0.801803,59.479496,0.008818,0.015526,0.979056,0.096724,0.086870,9.802288,0.005898,-0.000641,0.003614,0.179817,0.845739,-1.211967,100350.0000
1764077398439319889,2025-11-25 18:59:58.436,0.551099,0.801669,59.468933,0.008774,0.015467,0.979005,0.091742,0.095327,9.797025,-0.000756,-0.003899,0.006272,0.178337,0.843751,-1.215286,100350.0000
1764077398538419741,2025-11-25 18:59:58.536,0.550238,0.801115,59.458923,0.009025,0.015478,0.979002,0.089646,0.127460,9.789577,-0.002521,0.000888,0.004600,0.179300,0.843288,-1.214812,100347.0000
1764077398638708778,2025-11-25 18:59:58.636,0.552344,0.800990,59.448029,0.008489,0.015327,0.978913,0.077967,0.158730,9.769529,-0.000244,0.001395,0.005563,0.179318,0.845219,-1.213879,100351.0000
1764077398738398556,2025-11-25 18:59:58.736,0.553666,0.800043,59.437954,0.008722,0.015864,0.978759,0.076352,0.204211,9.767828,-0.001456,0.001351,0.004005,0.179317,0.846632,-1.214863,100345.0000
1764077398838557889,2025-11-25 18:59:58.836,0.553104,0.800922,59.425426,0.008708,0.016007,0.978797,0.065422,0.229768,9.771228,0.003422,0.000401,0.005830,0.180768,0.846658,-1.213922,100349.0000
1764077398938718500,2025-11-25 18:59:58.936,0.549592,0.803575,59.414814,0.008360,0.015981,0.978728,0.077749,0.225779,9.787154,0.002360,0.000214,0.003216,0.179785,0.842355,-1.213842,100348.0000
1764077399038200759,2025-11-25 18:59:59.036,0.542339,0.806731,59.406609,0.008676,0.015976,0.978847,0.088426,0.205481,9.780427,-0.001509,0.002185,0.002075,0.182676,0.844736,-1.214884,100346.0000
1764077399138071259,2025-11-25 18:59:59.136,0.535787,0.809842,59.398808,0.008803,0.015669,0.978933,0.097876,0.153985,9.790529,-0.003299,-0.004308,0.002940,0.180270,0.844725,-1.214848,100344.0000
1764077399237798092,2025-11-25 18:59:59.236,0.532882,0.810102,59.388992,0.009066,0.015147,0.978748,0.105388,0.101612,9.806567,-0.002296,-0.001616,-0.001892,0.180756,0.844270,-1.213885,100354.0000
1764077399338443333,2025-11-25 18:59:59.336,0.529956,0.806707,59.377880,0.009045,0.015009,0.978650,0.105354,0.088088,9.800185,0.005207,-0.002311,0.002352,0.183148,0.843773,-1.215358,100354.0000
1764077399438575314,2025-11-25 18:59:59.436,0.535676,0.808709,59.367466,0.008705,0.015093,0.978819,0.093914,0.069264,9.803919,0.008860,-0.003886,0.006093,0.180760,0.844280,-1.213404,100352.0000
1764077399538430518,2025-11-25 18:59:59.536,0.541579,0.806868,59.356071,0.008653,0.015288,0.978821,0.078010,0.131483,9.811120,0.001218,-0.001837,0.004767,0.182671,0.843781,-1.214869,100348.0000
1764077399638298092,2025-11-25 18:59:59.636,0.549501,0.806158,59.344700,0.008478,0.015765,0.978915,0.080144,0.152273,9.773111,0.003173,-0.000316,0.007633,0.180273,0.846148,-1.215352,100345.0000
1764077399738324814,2025-11-25 18:59:59.736,0.550258,0.809087,59.338493,0.008337,0.016125,0.978489,0.061993,0.210353,9.764693,0.004238,0.000085,0.005083,0.183652,0.845249,-1.213461,100349.0000
1764077399838497555,2025-11-25 18:59:59.836,0.541779,0.811009,59.330372,0.008886,0.015953,0.978949,0.077812,0.221422,9.755211,0.001495,0.000798,0.004536,0.181708,0.845189,-1.215840,100350.0000
1764077399938591981,2025-11-25 18:59:59.936,0.533025,0.816442,59.322830,0.009192,0.015860,0.978928,0.085293,0.223273,9.769614,-0.000094,-0.002802,0.002917,0.183631,0.843307,-1.214876,100354.0000
1764077400038374944,2025-11-25 19:00:00.036,0.524440,0.814729,59.316299,0.009376,0.015556,0.979011,0.093463,0.195531,9.797437,0.000297,-0.001164,0.003437,0.183645,0.846173,-1.214920,100344.0000
1764077400138440036,2025-11-25 19:00:00.136,0.517414,0.806836,59.309879,0.009052,0.015161,0.979086,0.094184,0.147261,9.807030,0.004076,0.000231,0.001595,0.181230,0.842839,-1.213870,100353.0000
1764077400237703203,2025-11-25 19:00:00.236,0.520531,0.800192,59.304737,0.008636,0.014972,0.979007,0.094064,0.089351,9.817435,0.007743,-0.002071,-0.001311,0.182677,0.845681,-1.215380,100345.0000
1764077400338588295,2025-11-25 19:00:00.336,0.525467,0.795746,59.298725,0.008681,0.015111,0.979045,0.111969,0.084743,9.821327,0.001712,0.000383,0.003203,0.183166,0.844291,-1.213440,100352.0000
1764077400439149462,2025-11-25 19:00:00.436,0.531629,0.791614,59.293541,0.008289,0.015646,0.978747,0.094049,0.099182,9.799967,0.002644,-0.002111,0.003312,0.181224,0.843764,-1.215329,100348.0000
1764077400539732684,2025-11-25 19:00:00.536,0.537511,0.791819,59.286465,0.008562,0.015666,0.978870,0.090141,0.118089,9.774267,0.001651,-0.000864,0.002608,0.184122,0.843807,-1.213928,100350.0000
1764077400638322943,2025-11-25 19:00:00.636,0.534151,0.792837,59.280525,0.008481,0.015886,0.978737,0.076601,0.168421,9.784329,-0.001535,-0.001158,0.008578,0.183138,0.843274,-1.216313,100348.0000
1764077400738140314,2025-11-25 19:00:00.736,0.529453,0.765449,59.274963,0.008719,0.016435,0.979665,0.064407,0.400184,9.808183,0.001841,0.010985,0.007288,0.182176,0.843270,-1.216299,100350.0000
1764077400838465351,2025-11-25 19:00:00.836,0.526911,0.687342,59.273502,0.005857,0.015550,0.979321,-0.081637,0.345572,9.746542,0.003616,0.013365,0.001423,0.183642,0.844750,-1.214417,100344.0000
1764077400939874906,2025-11-25 19:00:00.937,0.524300,0.532771,59.279812,0.000944,0.015419,0.980851,-0.243061,0.257697,9.684394,-0.000571,0.033798,-0.000944,0.186051,0.843826,-1.213475,100350.0000
1764077401038446128,2025-11-25 19:00:01.036,0.518959,0.228109,59.300331,-0.010144,0.015206,0.982502,-0.188952,0.224197,9.669206,-0.000946,0.066825,-0.003015,0.190857,0.844305,-1.214516,100346.0000
1764077401138525980,2025-11-25 19:00:01.136,0.517045,-0.219220,59.332527,-0.028808,0.014912,0.980646,-0.172150,0.172780,9.882149,0.002713,0.081166,-0.002972,0.192781,0.844314,-1.214545,100349.0000
1764077401237705221,2025-11-25 19:00:01.236,0.522608,-0.644949,59.374542,-0.057223,0.014646,0.977001,-0.811724,-0.111887,9.528829,0.006603,0.052286,-0.012613,0.196160,0.845772,-1.214135,100351.0000
1764077401339442721,2025-11-25 19:00:01.336,0.534756,-0.803560,59.431007,-0.074394,0.015635,0.973558,-0.602473,0.233389,9.724092,0.002559,-0.003327,-0.010381,0.196636,0.843874,-1.213632,100347.0000
1764077401438466998,2025-11-25 19:00:01.436,0.549254,-0.641441,59.499371,-0.072795,0.014102,0.971611,-0.301281,-0.075611,9.818653,-0.000123,-0.051790,-0.007227,0.193728,0.841920,-1.215004,100345.0000
1764077401538547554,2025-11-25 19:00:01.536,0.565228,-0.251682,59.585724,-0.057992,0.017502,0.972927,-0.137177,-0.018128,9.890518,0.004430,-0.076950,-0.016737,0.190349,0.842819,-1.216894,100348.0000
1764077401638555646,2025-11-25 19:00:01.636,0.566046,0.179463,59.694569,-0.036820,0.017018,0.973486,-0.216821,-0.035365,9.858014,0.002994,-0.065784,-0.016040,0.184099,0.843746,-1.216816,100350.0000
1764077401738200739,2025-11-25 19:00:01.736,0.562664,0.473106,59.828510,-0.016111,0.018501,0.979971,0.079864,0.240641,9.957230,-0.000585,-0.030900,-0.013946,0.182168,0.843250,-1.217262,100347.0000
1764077401838893498,2025-11-25 19:00:01.836,0.547103,0.526824,59.983788,-0.008254,0.017517,0.983344,-0.195325,0.362618,9.943395,-0.002527,0.013320,-0.032408,0.178338,0.845641,-1.216278,100346.0000
1764077401938466794,2025-11-25 19:00:01.936,0.542024,0.379978,60.157822,-0.008494,0.015597,0.986303,-0.047450,0.155299,9.878382,-0.002575,0.039505,-0.027611,0.177364,0.843248,-1.216228,100346.0000
1764077402038099035,2025-11-25 19:00:02.036,0.549978,0.114063,60.332413,-0.021132,0.017071,0.984807,-0.470107,0.091617,9.979214,0.002584,0.045077,-0.037383,0.176898,0.844700,-1.215280,100348.0000
1764077402138127831,2025-11-25 19:00:02.136,0.566760,-0.163594,60.504253,-0.032510,0.016585,0.980822,-0.477165,0.077878,9.768027,0.004785,0.036183,-0.031712,0.175932,0.844685,-1.215747,100349.0000
1764077402237849350,2025-11-25 19:00:02.236,0.576701,-0.313563,60.677822,-0.042708,0.016893,0.977312,-0.476355,0.044602,9.674837,-0.003810,0.006371,-0.028014,0.178808,0.841842,-1.215264,100352.0000
1764077402338183609,2025-11-25 19:00:02.336,0.577382,-0.284946,60.850735,-0.043126,0.018699,0.973847,-0.402678,-0.216844,9.749063,-0.005202,-0.019078,-0.037451,0.174967,0.844203,-1.215726,100346.0000
1764077402438389442,2025-11-25 19:00:02.436,0.575105,-0.122483,61.025837,-0.034130,0.019321,0.972533,-0.042579,0.091482,9.928114,-0.002967,-0.035424,-0.040990,0.171586,0.843212,-1.216624,100351.0000
1764077402538635831,2025-11-25 19:00:02.536,0.565334,0.069712,61.202572,-0.021513,0.016044,0.972946,-0.223938,0.087509,9.710896,0.003055,-0.035805,-0.025430,0.168720,0.844195,-1.214671,100345.0000
1764077402638723183,2025-11-25 19:00:02.636,0.567400,0.413236,61.367870,-0.010320,0.015565,0.972162,-0.007782,0.264612,9.732883,0.003732,-0.083963,-0.013188,0.159571,0.842721,-1.214513,100349.0000
1764077402738811683,2025-11-25 19:00:02.737,0.574029,1.017556,61.509979,0.013244,0.018881,0.977613,0.174572,0.358407,9.733373,-0.002703,-0.116161,-0.019931,0.154776,0.844631,-1.213509,100347.0000
1764077402838534090,2025-11-25 19:00:02.836,0.576863,1.624249,61.640205,0.045349,0.017720,0.984849,0.676563,0.194913,9.895778,0.005535,-0.092945,-0.018136,0.145622,0.843614,-1.214322,100343.0000
1764077402938834016,2025-11-25 19:00:02.936,0.560878,1.948916,61.768524,0.071229,0.018266,0.990463,0.895705,0.273177,9.918707,-0.000496,-0.024083,-0.018107,0.141300,0.842202,-1.212310,100346.0000
1764077403038417460,2025-11-25 19:00:03.036,0.545395,1.871668,61.898037,0.075414,0.017000,0.989736,0.645915,0.226657,9.860133,0.000079,0.045876,-0.026763,0.140814,0.843603,-1.213769,100350.0000
1764077403138528775,2025-11-25 19:00:03.136,0.533192,1.469679,62.031082,0.058682,0.015532,0.985132,0.369552,0.191099,9.794326,-0.001202,0.087319,-0.024349,0.142755,0.844597,-1.212368,100350.0000
1764077403237759534,2025-11-25 19:00:03.236,0.539945,0.948877,62.149792,0.032485,0.014133,0.978702,0.183791,0.130492,9.793708,0.001055,0.086972,-0.020723,0.146135,0.846056,-1.211959,100349.0000
1764077403338548294,2025-11-25 19:00:03.336,0.554547,0.534927,62.251854,0.007190,0.014422,0.973118,-0.048440,0.156809,9.721385,0.001739,0.050267,-0.016872,0.147548,0.843155,-1.213862,100354.0000
1764077403438348682,2025-11-25 19:00:03.436,0.570492,0.374404,62.338120,-0.007051,0.014946,0.970116,-0.103185,0.090788,9.706165,0.007371,0.001548,-0.011370,0.152360,0.843177,-1.213933,100346.0000
1764077403538302293,2025-11-25 19:00:03.536,0.586462,0.471257,62.416401,-0.006434,0.015480,0.970013,-0.009735,0.101202,9.728374,0.003772,-0.036151,-0.009000,0.145630,0.843634,-1.213359,100343.0000
1764077403638149775,2025-11-25 19:00:03.636,0.595523,0.731603,62.484478,0.005666,0.016370,0.972234,0.191381,0.124228,9.754365,-0.001681,-0.050512,-0.007203,0.145630,0.842222,-1.212374,100346.0000
1764077403738408442,2025-11-25 19:00:03.736,0.592454,1.010899,62.549000,0.021167,0.016954,0.976372,0.317027,0.163783,9.791745,-0.004297,-0.041454,-0.006787,0.138420,0.845035,-1.213274,100358.0000
1764077403838744293,2025-11-25 19:00:03.836,0.587443,1.189486,62.612953,0.032211,0.016006,0.980558,0.344698,0.197989,9.795876,0.001379,-0.021234,-0.010334,0.138888,0.844061,-1.214229,100349.0000
1764077403938503923,2025-11-25 19:00:03.936,0.581674,1.217828,62.670696,0.035370,0.015231,0.983544,0.326198,0.226584,9.811361,0.004910,0.005956,-0.007894,0.138896,0.844082,-1.213267,100352.0000
1764077404038409719,2025-11-25 19:00:04.036,0.579510,1.118142,62.726582,0.031244,0.015435,0.985057,0.252847,0.207357,9.833783,0.003815,0.020087,-0.010409,0.136471,0.844020,-1.215638,100353.0000
1764077404138338589,2025-11-25 19:00:04.136,0.582355,0.962922,62.787689,0.022738,0.015470,0.983956,0.171418,0.194030,9.822104,0.000238,0.024820,-0.012323,0.140333,0.843600,-1.213762,100354.0000
1764077404237739275,2025-11-25 19:00:04.236,0.578156,0.822099,62.848061,0.014259,0.015167,0.981294,0.113326,0.163327,9.813652,-0.004147,0.018725,-0.011383,0.140332,0.842655,-1.213266,100354.0000
1764077404339059997,2025-11-25 19:00:04.336,0.576719,0.748262,62.903118,0.009357,0.015055,0.977709,0.111908,0.099327,9.782944,0.002702,0.005719,-0.009425,0.138406,0.844527,-1.214711,100354.0000
1764077404438559645,2025-11-25 19:00:04.436,0.587432,0.749850,62.947243,0.008175,0.014540,0.975156,0.114668,0.073220,9.771925,0.007584,-0.004294,-0.007102,0.137452,0.844075,-1.213245,100354.0000
1764077404538478571,2025-11-25 19:00:04.536,0.600319,0.806695,62.985363,0.010274,0.014382,0.974305,0.121049,0.071618,9.764063,0.007796,-0.015592,-0.003587,0.140331,0.843123,-1.213755,100353.0000
1764077404638463830,2025-11-25 19:00:04.636,0.614861,0.871810,63.020905,0.013869,0.015816,0.975088,0.148522,0.108974,9.760342,0.000333,-0.009559,-0.003363,0.136001,0.844049,-1.214187,100349.0000
1764077404739571163,2025-11-25 19:00:04.736,0.624141,0.916111,63.062195,0.016956,0.016370,0.977159,0.169509,0.156515,9.766458,0.002258,-0.007661,-0.003566,0.134564,0.845943,-1.214676,100352.0000
1764077404838687830,2025-11-25 19:00:04.836,0.619960,0.923956,63.107677,0.019043,0.016631,0.979108,0.170466,0.204965,9.787419,0.004482,-0.001747,-0.004816,0.136011,0.843601,-1.212735,100350.0000
1764077404938664459,2025-11-25 19:00:04.936,0.612879,0.898003,63.152122,0.018738,0.016055,0.980921,0.185888,0.248329,9.805077,0.001160,0.005877,-0.004131,0.133576,0.843987,-1.216558,100350.0000
1764077405038380237,2025-11-25 19:00:05.036,0.600521,0.847696,63.199104,0.017410,0.015412,0.981461,0.169150,0.230004,9.797118,-0.004694,0.007870,-0.006627,0.135529,0.843599,-1.212728,100348.0000
1764077405138242515,2025-11-25 19:00:05.136,0.595094,0.797390,63.253597,0.014669,0.014990,0.981283,0.135180,0.193586,9.803415,-0.000599,0.010716,-0.009958,0.135531,0.843132,-1.212239,100349.0000
1764077405237787959,2025-11-25 19:00:05.236,0.600064,0.766854,63.309597,0.012287,0.014943,0.979985,0.125728,0.149007,9.812498,0.002510,0.004191,-0.009431,0.135031,0.844024,-1.215135,100350.0000
1764077405338720348,2025-11-25 19:00:05.336,0.605138,0.760979,63.367588,0.010959,0.014939,0.978724,0.107407,0.098089,9.796030,0.004855,-0.000053,-0.009328,0.132624,0.842123,-1.214108,100346.0000
1764077405438524922,2025-11-25 19:00:05.436,0.612939,0.779426,63.429501,0.011188,0.015059,0.977456,0.128958,0.093593,9.798569,0.000809,-0.006127,-0.009335,0.135034,0.843089,-1.214158,100352.0000
1764077405538590996,2025-11-25 19:00:05.536,0.618775,0.806060,63.497784,0.011959,0.015545,0.977115,0.142073,0.096465,9.788043,0.001393,-0.005821,-0.008147,0.131662,0.842118,-1.214093,100351.0000
1764077405638647940,2025-11-25 19:00:05.636,0.616962,0.832838,63.569370,0.013708,0.015859,0.977024,0.160081,0.103621,9.792328,-0.002015,-0.007688,-0.010728,0.131667,0.844019,-1.214604,100348.0000
1764077405738420311,2025-11-25 19:00:05.736,0.614402,0.849155,63.648743,0.014805,0.015884,0.978026,0.163326,0.180942,9.779181,0.003818,-0.000336,-0.011174,0.129246,0.841609,-1.215013,100344.0000
1764077405838606366,2025-11-25 19:00:05.836,0.610766,0.849102,63.736492,0.015535,0.015522,0.979078,0.147679,0.196436,9.780103,0.001508,0.002671,-0.012619,0.126848,0.842564,-1.214511,100350.0000
1764077405938492607,2025-11-25 19:00:05.936,0.611518,0.825903,63.826992,0.015253,0.015013,0.979511,0.125964,0.222786,9.769235,0.001798,0.008730,-0.013325,0.127820,0.842121,-1.213074,100348.0000
1764077406038381273,2025-11-25 19:00:06.036,0.615605,0.791863,63.920223,0.013863,0.015491,0.980064,0.126811,0.226453,9.783502,-0.003443,0.005371,-0.014064,0.126851,0.843042,-1.214518,100346.0000
1764077406138091773,2025-11-25 19:00:06.136,0.622336,0.758730,64.014198,0.011927,0.015197,0.979699,0.103073,0.196677,9.780506,0.001099,0.006404,-0.014601,0.126846,0.844444,-1.215985,100344.0000
1764077406237916422,2025-11-25 19:00:06.236,0.627384,0.735842,64.109001,0.010679,0.015971,0.978901,0.124057,0.147159,9.808819,0.001818,0.000755,-0.015918,0.125887,0.841147,-1.213512,100356.0000
1764077406338174940,2025-11-25 19:00:06.336,0.626735,0.735874,64.206154,0.009881,0.016271,0.978407,0.112223,0.109959,9.801299,0.006814,-0.007633,-0.017382,0.121560,0.841138,-1.212966,100356.0000
1764077406438730458,2025-11-25 19:00:06.436,0.626803,0.751660,64.295898,0.010370,0.015821,0.978092,0.127796,0.084778,9.804823,0.004429,-0.004279,-0.011827,0.122058,0.842126,-1.211544,100355.0000
1764077406538473532,2025-11-25 19:00:06.536,0.628129,0.773710,64.390144,0.011616,0.015622,0.978269,0.118677,0.112203,9.793701,-0.001795,-0.005416,-0.016909,0.120116,0.842544,-1.213930,100352.0000
1764077406638769329,2025-11-25 19:00:06.636,0.627831,0.795977,64.485809,0.012753,0.015262,0.978368,0.141054,0.111727,9.770030,0.002344,-0.005789,-0.010671,0.121061,0.842030,-1.215863,100344.0000
1764077406738392792,2025-11-25 19:00:06.736,0.632452,0.802753,64.584824,0.013178,0.015615,0.979177,0.113921,0.194992,9.776431,0.004674,0.002085,-0.013257,0.117236,0.841606,-1.212428,100348.0000
1764077406838192551,2025-11-25 19:00:06.836,0.635727,0.797431,64.680763,0.012768,0.015948,0.979266,0.115641,0.210665,9.781383,-0.000281,0.001243,-0.015460,0.116734,0.839663,-1.213836,100351.0000
1764077406938570625,2025-11-25 19:00:06.936,0.633079,0.783163,64.776009,0.012394,0.015836,0.979524,0.106048,0.225311,9.758256,-0.003607,0.006539,-0.013352,0.114342,0.842518,-1.213844,100346.0000
1764077407038278291,2025-11-25 19:00:07.036,0.626723,0.768052,64.874657,0.011333,0.015831,0.979264,0.110517,0.218094,9.781276,-0.001652,0.002108,-0.016261,0.115318,0.842086,-1.211926,100347.0000
1764077407138485162,2025-11-25 19:00:07.136,0.621342,0.761458,64.970406,0.010987,0.015457,0.978807,0.105240,0.194233,9.792212,0.004119,0.002012,-0.017618,0.112394,0.840090,-1.215224,100348.0000
1764077407237705458,2025-11-25 19:00:07.236,0.624065,0.763347,65.066772,0.010472,0.015512,0.978611,0.115658,0.119089,9.807876,-0.001069,-0.004677,-0.017290,0.112902,0.840164,-1.211861,100352.0000
1764077407338138773,2025-11-25 19:00:07.336,0.627560,0.764128,65.160286,0.010439,0.015012,0.978455,0.120544,0.104885,9.801551,0.000985,0.002062,-0.018671,0.112911,0.844900,-1.213860,100356.0000
1764077407438641421,2025-11-25 19:00:07.436,0.640133,0.770398,65.255577,0.011167,0.015180,0.978514,0.124450,0.061589,9.790085,0.002724,-0.003012,-0.015957,0.109071,0.843023,-1.211367,100341.0000
1764077407538165050,2025-11-25 19:00:07.536,0.646626,0.774249,65.348160,0.011460,0.015832,0.978536,0.092998,0.098254,9.798079,0.003561,-0.000981,-0.013989,0.108086,0.842957,-1.214241,100344.0000
1764077407638401365,2025-11-25 19:00:07.636,0.654829,0.771299,65.442184,0.011834,0.015962,0.978599,0.133395,0.143657,9.782773,0.005554,-0.000394,-0.012345,0.107600,0.842000,-1.214219,100351.0000
1764077407738841513,2025-11-25 19:00:07.736,0.654313,0.763265,65.541023,0.011944,0.016485,0.978859,0.109509,0.177446,9.772544,0.001154,0.001667,-0.014833,0.105186,0.841969,-1.215146,100351.0000
1764077407838434458,2025-11-25 19:00:07.836,0.652176,0.752306,65.641434,0.011843,0.015809,0.979097,0.091868,0.220098,9.766118,-0.004528,0.003265,-0.015825,0.107120,0.841530,-1.213723,100350.0000
1764077407939143217,2025-11-25 19:00:07.936,0.646062,0.740827,65.739105,0.011121,0.015511,0.978891,0.074486,0.230823,9.783560,-0.003354,0.002042,-0.016772,0.104233,0.840572,-1.213185,100348.0000
1764077408038166383,2025-11-25 19:00:08.036,0.646069,0.733405,65.838127,0.010558,0.015713,0.979113,0.099236,0.213848,9.776934,0.000815,0.001854,-0.016472,0.103269,0.841035,-1.213659,100345.0000
1764077408138523976,2025-11-25 19:00:08.136,0.650614,0.735083,65.938461,0.009605,0.015193,0.979104,0.096848,0.172342,9.788395,-0.000646,-0.002348,-0.018911,0.101829,0.841039,-1.213156,100348.0000
1764077408237925568,2025-11-25 19:00:08.236,0.651352,0.741021,66.038033,0.009836,0.015653,0.978954,0.105710,0.131722,9.800202,0.001697,-0.005353,-0.013072,0.100392,0.841520,-1.212661,100344.0000
1764077408338315346,2025-11-25 19:00:08.336,0.654567,0.755947,66.135246,0.010071,0.015481,0.978589,0.126346,0.089755,9.807767,-0.001848,-0.004841,-0.015040,0.098916,0.839542,-1.215498,100342.0000
1764077408438579531,2025-11-25 19:00:08.436,0.656865,0.773734,66.227097,0.010550,0.015604,0.978314,0.131638,0.066975,9.804569,0.005267,-0.005284,-0.007814,0.094628,0.841047,-1.211124,100348.0000
1764077408538489402,2025-11-25 19:00:08.536,0.655705,0.783672,66.322769,0.011476,0.015369,0.978493,0.112779,0.098885,9.785772,0.003055,0.000909,-0.015669,0.094114,0.840019,-1.214472,100356.0000
1764077408638415216,2025-11-25 19:00:08.636,0.661974,0.785137,66.414307,0.011806,0.015799,0.978828,0.118520,0.139720,9.791626,0.005043,0.001306,-0.012707,0.093168,0.840055,-1.212532,100344.0000
1764077408738518624,2025-11-25 19:00:08.736,0.668177,0.770560,66.510323,0.011626,0.015572,0.979438,0.103949,0.189334,9.783867,0.000643,0.007216,-0.013382,0.095084,0.841456,-1.214508,100344.0000
1764077408838709920,2025-11-25 19:00:08.836,0.678114,0.753250,66.604935,0.011092,0.015434,0.979206,0.104226,0.228358,9.775604,-0.000349,0.001726,-0.015993,0.091243,0.840046,-1.212504,100345.0000
1764077408938528698,2025-11-25 19:00:08.936,0.683940,0.731605,66.696777,0.010530,0.015606,0.979156,0.073654,0.232823,9.772941,0.005540,0.001429,-0.012649,0.092679,0.838620,-1.212503,100348.0000
1764077409038071698,2025-11-25 19:00:09.036,0.682279,0.713384,66.788666,0.009822,0.016007,0.978765,0.093502,0.213229,9.771234,-0.004022,0.003998,-0.018390,0.093166,0.840522,-1.213021,100346.0000
1764077409138570457,2025-11-25 19:00:09.136,0.677568,0.705259,66.881241,0.008946,0.015742,0.978609,0.094010,0.181964,9.786214,-0.002813,0.001833,-0.018814,0.090750,0.840014,-1.213941,100352.0000
1764077409237690827,2025-11-25 19:00:09.236,0.672511,0.708743,66.972878,0.009072,0.015254,0.978205,0.113464,0.124004,9.793461,0.003173,-0.002794,-0.014764,0.088355,0.840501,-1.212950,100345.0000
1764077409339319790,2025-11-25 19:00:09.336,0.669128,0.724904,67.062149,0.009505,0.015228,0.978652,0.114915,0.099190,9.804893,-0.003203,-0.004082,-0.015941,0.086898,0.837161,-1.212396,100344.0000
1764077409438617309,2025-11-25 19:00:09.436,0.677209,0.738865,67.149452,0.010421,0.015237,0.978902,0.131544,0.071266,9.811090,0.003279,-0.004266,-0.012509,0.086425,0.840949,-1.213891,100348.0000
1764077409538632771,2025-11-25 19:00:09.536,0.682032,0.751378,67.239029,0.010817,0.015396,0.979077,0.101524,0.099507,9.801985,0.007859,-0.003987,-0.012728,0.086428,0.840014,-1.212914,100350.0000
1764077409638623290,2025-11-25 19:00:09.636,0.689416,0.755052,67.328377,0.010972,0.015570,0.979041,0.108234,0.132453,9.785457,0.004903,-0.003310,-0.010999,0.082586,0.840018,-1.211895,100346.0000
1764077409739386086,2025-11-25 19:00:09.736,0.694203,0.751456,67.414345,0.011029,0.015929,0.978966,0.092019,0.183485,9.780681,0.001742,-0.003651,-0.010708,0.082086,0.838552,-1.213310,100352.0000
1764077409838642401,2025-11-25 19:00:09.836,0.697696,0.740272,67.498428,0.011210,0.015991,0.979059,0.108328,0.223335,9.769711,0.003281,0.000625,-0.010611,0.081607,0.839027,-1.213310,100346.0000
1764077409938548456,2025-11-25 19:00:09.936,0.699002,0.727677,67.580978,0.010674,0.015865,0.979080,0.085933,0.230050,9.773742,0.006395,0.005194,-0.013921,0.081597,0.838529,-1.214265,100351.0000
1764077410038445030,2025-11-25 19:00:10.036,0.697464,0.710291,67.662338,0.009799,0.015585,0.979175,0.098118,0.213311,9.775656,-0.002270,0.001934,-0.015554,0.080168,0.837618,-1.211823,100353.0000
1764077410138367401,2025-11-25 19:00:10.136,0.695912,0.703255,67.742386,0.009651,0.015131,0.978914,0.115819,0.190374,9.780656,-0.004226,0.001894,-0.015544,0.079196,0.837116,-1.212764,100346.0000
1764077410237699697,2025-11-25 19:00:10.236,0.702218,0.699738,67.820152,0.009271,0.014947,0.978352,0.089221,0.144318,9.794542,0.005675,-0.003141,-0.016465,0.082085,0.839019,-1.213798,100339.0000
1764077410339550364,2025-11-25 19:00:10.336,0.706867,0.701947,67.899254,0.009555,0.015001,0.978098,0.100741,0.117856,9.807793,0.004154,-0.002030,-0.013564,0.077760,0.837130,-1.211779,100356.0000
1764077410438613012,2025-11-25 19:00:10.436,0.709755,0.712053,67.976830,0.009627,0.016015,0.978420,0.111212,0.091733,9.783416,0.000796,-0.003900,-0.010300,0.077267,0.837097,-1.213216,100347.0000
1764077410539294141,2025-11-25 19:00:10.536,0.712742,0.719207,68.052292,0.010246,0.016107,0.978823,0.123259,0.097329,9.799579,0.000364,-0.000382,-0.010332,0.073405,0.835159,-1.213612,100345.0000
1764077410638250919,2025-11-25 19:00:10.636,0.711457,0.725583,68.124527,0.010683,0.015858,0.979023,0.111451,0.093175,9.796977,0.003829,-0.000769,-0.008467,0.074851,0.838001,-1.215121,100348.0000
1764077410738365567,2025-11-25 19:00:10.736,0.709443,0.719470,68.193077,0.010684,0.015402,0.979246,0.106227,0.127976,9.796965,0.002048,0.001214,-0.011235,0.075340,0.838023,-1.214165,100349.0000
1764077410840039734,2025-11-25 19:00:10.836,0.713304,0.704731,68.262001,0.010284,0.014892,0.979170,0.088790,0.154245,9.775569,0.006006,0.006231,-0.012858,0.072936,0.837545,-1.213641,100350.0000
1764077410938741030,2025-11-25 19:00:10.936,0.720462,0.696896,68.331932,0.009539,0.015070,0.978681,0.081450,0.200148,9.762248,0.004892,0.001997,-0.007713,0.072455,0.836130,-1.212649,100354.0000
1764077411038424196,2025-11-25 19:00:11.036,0.729690,0.689401,68.400696,0.009302,0.015306,0.978709,0.066530,0.227716,9.773810,-0.000358,-0.002688,-0.008457,0.073408,0.836582,-1.214115,100345.0000
1764077411138159715,2025-11-25 19:00:11.136,0.730828,0.688949,68.468704,0.009163,0.015720,0.978590,0.082233,0.242372,9.763209,-0.000621,-0.002081,-0.013575,0.070025,0.835113,-1.215006,100345.0000
1764077411237793937,2025-11-25 19:00:11.236,0.727375,0.693582,68.537094,0.009399,0.016284,0.978531,0.094063,0.186479,9.780110,0.002832,-0.004333,-0.013667,0.068116,0.837503,-1.214533,100352.0000
1764077411339358863,2025-11-25 19:00:11.336,0.725868,0.698853,68.605553,0.009968,0.015572,0.978652,0.083288,0.178646,9.783616,0.000750,-0.001859,-0.011245,0.067634,0.837968,-1.215014,100347.0000
1764077411438523270,2025-11-25 19:00:11.436,0.724591,0.701750,68.674019,0.010330,0.015525,0.978777,0.124170,0.134453,9.800671,-0.001197,0.001132,-0.014066,0.068103,0.835582,-1.214985,100345.0000
1764077411538406122,2025-11-25 19:00:11.536,0.724615,0.700040,68.739021,0.010255,0.015194,0.979032,0.100018,0.094737,9.799260,0.000916,-0.003504,-0.013917,0.065219,0.836992,-1.215445,100344.0000
1764077411638802511,2025-11-25 19:00:11.636,0.723246,0.694055,68.800949,0.010121,0.015202,0.978859,0.112096,0.084496,9.801512,0.001198,-0.000422,-0.009102,0.067159,0.838454,-1.214533,100344.0000
1764077411738387196,2025-11-25 19:00:11.736,0.729043,0.689986,68.860542,0.009465,0.015812,0.978853,0.088310,0.085864,9.806009,0.004642,0.001580,-0.008502,0.063302,0.836059,-1.213958,100343.0000
1764077411838585455,2025-11-25 19:00:11.836,0.733401,0.686489,68.921303,0.009150,0.015451,0.979072,0.088247,0.118407,9.799316,-0.002553,-0.001818,-0.008862,0.064271,0.837496,-1.213994,100346.0000
1764077411938664529,2025-11-25 19:00:11.936,0.737162,0.685935,68.979874,0.009504,0.015737,0.978806,0.065564,0.167890,9.777225,0.000527,-0.001527,-0.006410,0.063807,0.837067,-1.211573,100350.0000
1764077412037947233,2025-11-25 19:00:12.036,0.735160,0.686436,69.040253,0.009449,0.015788,0.978854,0.071444,0.199403,9.756391,-0.002006,0.000477,-0.007376,0.064250,0.834142,-1.214424,100343.0000
1764077412138396825,2025-11-25 19:00:12.136,0.735695,0.686174,69.098717,0.010131,0.015533,0.978822,0.091216,0.232764,9.770088,-0.003639,0.000317,-0.008632,0.061841,0.834121,-1.214870,100344.0000
1764077412237676122,2025-11-25 19:00:12.236,0.736118,0.680536,69.158821,0.009969,0.015465,0.978756,0.098761,0.222993,9.772838,-0.004197,-0.002439,-0.010730,0.061371,0.835562,-1.214404,100344.0000
1764077412338896751,2025-11-25 19:00:12.336,0.738603,0.678938,69.216827,0.009942,0.015321,0.978893,0.097819,0.187524,9.775185,0.003886,-0.001243,-0.011549,0.060908,0.836078,-1.212479,100340.0000
1764077412438563233,2025-11-25 19:00:12.436,0.738685,0.677073,69.276268,0.009353,0.015492,0.978938,0.094018,0.146768,9.810021,0.000219,0.001571,-0.010646,0.060910,0.836556,-1.212486,100348.0000
1764077412538436362,2025-11-25 19:00:12.536,0.739603,0.669167,69.330193,0.009713,0.015288,0.978687,0.116209,0.117555,9.817098,-0.006905,0.001910,-0.010137,0.060883,0.835072,-1.214871,100350.0000
1764077412638409844,2025-11-25 19:00:12.636,0.741506,0.672130,69.384399,0.009451,0.015521,0.979069,0.102704,0.102271,9.808765,0.002771,0.000523,-0.008169,0.057532,0.836988,-1.213887,100343.0000
1764077412738099158,2025-11-25 19:00:12.736,0.743092,0.670546,69.438736,0.009343,0.015265,0.978872,0.095528,0.087883,9.800447,0.007172,-0.002300,-0.007712,0.057038,0.835065,-1.214333,100342.0000
1764077412838432825,2025-11-25 19:00:12.836,0.747315,0.671110,69.495148,0.009452,0.015022,0.978790,0.090100,0.101350,9.798897,0.002562,-0.001484,-0.007630,0.056554,0.834585,-1.214318,100351.0000
1764077412938503621,2025-11-25 19:00:12.936,0.751504,0.673628,69.549675,0.009717,0.015428,0.978763,0.096334,0.167962,9.788193,0.002987,-0.008350,-0.003857,0.057054,0.836051,-1.212903,100347.0000
1764077413038436621,2025-11-25 19:00:13.036,0.759253,0.677200,69.600204,0.009633,0.015374,0.978509,0.078599,0.186460,9.780014,0.000260,-0.004560,-0.006975,0.055619,0.837010,-1.212415,100343.0000
1764077413138366991,2025-11-25 19:00:13.136,0.764335,0.672402,69.650032,0.009615,0.015389,0.978818,0.081484,0.223332,9.768674,0.004181,0.001752,-0.006177,0.055582,0.830312,-1.212794,100349.0000
1764077413237825640,2025-11-25 19:00:13.236,0.767231,0.668727,69.700577,0.009470,0.015783,0.978920,0.081699,0.252903,9.780376,-0.005055,-0.000824,-0.007394,0.054633,0.832229,-1.212327,100343.0000
1764077413338921269,2025-11-25 19:00:13.336,0.768672,0.666422,69.750854,0.009353,0.015419,0.978891,0.106052,0.199151,9.782356,-0.002991,-0.002515,-0.011772,0.054144,0.832206,-1.213283,100348.0000
1764077413438566325,2025-11-25 19:00:13.436,0.768446,0.667588,69.798180,0.009184,0.015254,0.978730,0.094102,0.167168,9.785011,-0.003825,-0.000616,-0.010653,0.051744,0.834096,-1.213758,100353.0000
1764077413538231176,2025-11-25 19:00:13.536,0.767214,0.669883,69.850998,0.009787,0.015234,0.978756,0.106457,0.127288,9.806640,0.000996,0.000321,-0.011442,0.057034,0.835054,-1.214814,100345.0000
1764077413638679491,2025-11-25 19:00:13.637,0.763263,0.668417,69.902672,0.009760,0.015842,0.978963,0.107706,0.109475,9.813176,0.006063,0.000158,-0.008790,0.051760,0.834137,-1.211833,100346.0000
1764077413738906324,2025-11-25 19:00:13.737,0.763970,0.662677,69.951912,0.009989,0.015689,0.979055,0.109965,0.098622,9.809476,0.003001,-0.000121,-0.009659,0.051255,0.831716,-1.213233,100349.0000
1764077413838609954,2025-11-25 19:00:13.837,0.766059,0.662915,70.003510,0.009629,0.015640,0.978603,0.102831,0.098815,9.796281,-0.000806,-0.001114,-0.006593,0.049814,0.834545,-1.214700,100345.0000
1764077413938740510,2025-11-25 19:00:13.937,0.764935,0.659124,70.049400,0.009182,0.015165,0.978891,0.094300,0.096230,9.801876,-0.000169,0.000927,-0.006076,0.051257,0.833606,-1.214225,100350.0000
1764077414038157806,2025-11-25 19:00:14.036,0.767070,0.658774,70.095451,0.009190,0.014976,0.978825,0.104833,0.117751,9.810312,0.002276,0.000091,-0.004698,0.050788,0.834580,-1.213270,100347.0000
1764077414140784824,2025-11-25 19:00:14.136,0.775421,0.658962,70.143356,0.009527,0.015087,0.978592,0.092694,0.118852,9.786064,0.005962,-0.001569,-0.006408,0.050783,0.832679,-1.212759,100343.0000
1764077414238475380,2025-11-25 19:00:14.237,0.784689,0.658944,70.190201,0.009467,0.015125,0.978558,0.073438,0.148126,9.770665,0.005653,-0.003861,-0.005418,0.049340,0.833618,-1.213234,100348.0000
1764077414339169269,2025-11-25 19:00:14.337,0.787083,0.660854,70.237831,0.009205,0.015507,0.978515,0.083129,0.185018,9.770194,0.001164,-0.000400,-0.007046,0.048384,0.834101,-1.212745,100347.0000
1764077414440489954,2025-11-25 19:00:14.436,0.792362,0.664784,70.284439,0.009507,0.015943,0.978963,0.085981,0.202385,9.779878,-0.000801,0.002724,-0.002939,0.046915,0.829786,-1.213140,100350.0000
1764077414538350509,2025-11-25 19:00:14.536,0.797545,0.663594,70.329025,0.009741,0.016195,0.979020,0.070675,0.229409,9.773089,0.002342,-0.002407,-0.006723,0.047417,0.831729,-1.211732,100344.0000
1764077414641272342,2025-11-25 19:00:14.637,0.791998,0.660442,70.374390,0.010031,0.015884,0.979078,0.078833,0.216504,9.757795,0.003412,0.002339,-0.007404,0.046446,0.834530,-1.214650,100342.0000
1764077414746337916,2025-11-25 19:00:14.741,0.785055,0.658267,70.419930,0.009972,0.015584,0.979125,0.091695,0.226468,9.762446,0.004324,-0.002610,-0.005946,0.045954,0.833084,-1.215102,100342.0000
1764077414850297194,2025-11-25 19:00:14.830,0.780439,0.653058,70.465027,0.009386,0.015250,0.978862,0.096446,0.217075,9.773933,-0.001564,0.001473,-0.007890,0.046459,0.833148,-1.212221,100346.0000
1764077414942748176,2025-11-25 19:00:14.936,0.781073,0.648535,70.511223,0.009094,0.014887,0.979021,0.083303,0.216579,9.764723,0.000316,-0.001931,-0.006507,0.044024,0.829762,-1.213579,100345.0000
1764077415038360638,2025-11-25 19:00:15.035,0.786141,0.648416,70.558090,0.009236,0.015028,0.978632,0.087468,0.213627,9.773919,0.006677,-0.005734,-0.005476,0.045963,0.832637,-1.213651,100348.0000
1764077415139716342,2025-11-25 19:00:15.136,0.791466,0.648617,70.599045,0.009345,0.015233,0.978734,0.095126,0.221260,9.788062,0.003843,0.000060,-0.006363,0.043579,0.834568,-1.212201,100348.0000
1764077415238504157,2025-11-25 19:00:15.236,0.794649,0.650730,70.642982,0.009567,0.015329,0.978921,0.087554,0.223980,9.772348,-0.000447,-0.001342,-0.010068,0.041172,0.833611,-1.211669,100352.0000
1764077415340057472,2025-11-25 19:00:15.336,0.798930,0.650923,70.686089,0.009509,0.015583,0.978756,0.098213,0.219165,9.782664,0.002745,-0.001708,-0.007914,0.042123,0.833585,-1.213127,100345.0000
1764077415440355972,2025-11-25 19:00:15.436,0.800528,0.652047,70.731628,0.009371,0.015807,0.978852,0.085309,0.231695,9.776296,0.008684,-0.000692,-0.007833,0.040673,0.830733,-1.212099,100343.0000
1764077415540426249,2025-11-25 19:00:15.536,0.796076,0.645472,70.776367,0.009558,0.015747,0.979123,0.095620,0.219549,9.777921,-0.001031,-0.003215,-0.004769,0.042111,0.834967,-1.215556,100351.0000
1764077415639635805,2025-11-25 19:00:15.637,0.792929,0.644594,70.819992,0.009471,0.015178,0.979001,0.084732,0.191489,9.773350,-0.001791,-0.002985,-0.007301,0.043072,0.832614,-1.214089,100351.0000
1764077415738976453,2025-11-25 19:00:15.736,0.784949,0.644203,70.864998,0.009353,0.015248,0.978714,0.094869,0.186997,9.780554,-0.002717,-0.002204,-0.010253,0.039216,0.831163,-1.214011,100349.0000
1764077415839083342,2025-11-25 19:00:15.836,0.782756,0.640902,70.907158,0.009091,0.014962,0.978654,0.083250,0.167533,9.791239,-0.000201,-0.003122,-0.004744,0.041162,0.831701,-1.211640,100349.0000
1764077415938881490,2025-11-25 19:00:15.936,0.782030,0.645681,70.952583,0.009267,0.015423,0.978470,0.107838,0.145972,9.791958,0.003917,-0.002530,-0.007682,0.039705,0.831186,-1.213055,100343.0000
1764077416038972545,2025-11-25 19:00:16.036,0.780196,0.646616,70.995972,0.009309,0.015831,0.978569,0.106931,0.129991,9.816019,0.003413,0.000290,-0.005103,0.037758,0.829704,-1.214930,100354.0000
1764077416138885212,2025-11-25 19:00:16.136,0.780171,0.645991,71.040695,0.009458,0.015403,0.978750,0.101895,0.093553,9.806406,0.002745,0.000763,-0.007994,0.037772,0.830212,-1.213493,100354.0000
1764077416238000693,2025-11-25 19:00:16.236,0.783329,0.642502,71.085358,0.009504,0.014903,0.978762,0.108883,0.093284,9.803545,-0.003320,0.000098,-0.005211,0.038729,0.831619,-1.214974,100351.0000
1764077416340089860,2025-11-25 19:00:16.336,0.789163,0.637842,71.129326,0.009552,0.015238,0.978620,0.099503,0.078426,9.795763,0.005691,-0.002376,-0.003300,0.037318,0.832639,-1.211597,100344.0000
1764077416439417064,2025-11-25 19:00:16.436,0.794750,0.633518,71.172226,0.009272,0.015354,0.979084,0.102863,0.097406,9.810987,0.004395,-0.001360,-0.006636,0.035856,0.831169,-1.212998,100356.0000
1764077416540626175,2025-11-25 19:00:16.536,0.800871,0.629398,71.215439,0.009057,0.015339,0.978946,0.082915,0.130872,9.778762,-0.001128,-0.000446,-0.003689,0.035359,0.831126,-1.214916,100346.0000
1764077416638795860,2025-11-25 19:00:16.636,0.804623,0.630796,71.260414,0.008799,0.015371,0.978872,0.074828,0.186311,9.760190,-0.001034,-0.002894,-0.009421,0.034411,0.831630,-1.213466,100348.0000
1764077416739358989,2025-11-25 19:00:16.736,0.808019,0.636928,71.306183,0.008899,0.015629,0.978726,0.073055,0.205479,9.759844,0.002974,0.000490,-0.006466,0.033910,0.829219,-1.214385,100352.0000
1764077416838867952,2025-11-25 19:00:16.836,0.809089,0.642255,71.352066,0.009299,0.015326,0.978492,0.068121,0.230181,9.773131,0.001668,-0.004250,-0.006604,0.033460,0.833069,-1.212992,100344.0000
1764077416938818415,2025-11-25 19:00:16.936,0.802663,0.642900,71.400276,0.009467,0.015563,0.978900,0.108084,0.220010,9.770844,0.000725,-0.001185,-0.008425,0.032475,0.830178,-1.213896,100350.0000
1764077417038632008,2025-11-25 19:00:17.036,0.796594,0.641944,71.448624,0.009694,0.015290,0.978933,0.095694,0.212088,9.785790,-0.000260,0.000475,-0.007855,0.032947,0.828269,-1.213874,100346.0000
1764077417139247045,2025-11-25 19:00:17.136,0.792665,0.635482,71.494926,0.009491,0.015463,0.978937,0.106454,0.182694,9.795773,-0.001218,0.001869,-0.006997,0.032971,0.831634,-1.212963,100345.0000
1764077417238049341,2025-11-25 19:00:17.236,0.791659,0.626755,71.540771,0.009326,0.015152,0.978926,0.095295,0.124313,9.810854,0.002763,-0.004842,-0.007316,0.031513,0.830174,-1.213882,100350.0000
1764077417339487322,2025-11-25 19:00:17.336,0.797229,0.620628,71.586494,0.009457,0.015037,0.978894,0.103238,0.090672,9.800449,0.005142,0.000235,-0.009191,0.031047,0.831625,-1.212934,100348.0000
1764077417439822470,2025-11-25 19:00:17.436,0.803930,0.619166,71.633453,0.008847,0.015336,0.978794,0.104513,0.077825,9.809244,0.001288,0.002526,-0.009837,0.032009,0.829271,-1.211468,100354.0000
1764077417538850285,2025-11-25 19:00:17.536,0.808953,0.617789,71.680763,0.008884,0.015341,0.978635,0.109031,0.078370,9.793001,0.001345,0.001240,-0.008646,0.030557,0.830657,-1.213394,100348.0000
1764077417638600693,2025-11-25 19:00:17.636,0.818077,0.616761,71.728523,0.008781,0.015413,0.978586,0.089837,0.146940,9.780479,0.006577,-0.001036,-0.005822,0.031050,0.829277,-1.210972,100346.0000
1764077417739900341,2025-11-25 19:00:17.736,0.822130,0.618675,71.777695,0.009133,0.015294,0.978633,0.087689,0.150806,9.779846,-0.001458,-0.002824,-0.005864,0.029107,0.830163,-1.213847,100354.0000
1764077417839996989,2025-11-25 19:00:17.836,0.820079,0.622298,71.825447,0.009664,0.015492,0.978820,0.083898,0.213971,9.763597,-0.006650,0.001171,-0.005497,0.027669,0.831112,-1.213840,100347.0000
1764077417938230618,2025-11-25 19:00:17.936,0.819987,0.622926,71.873978,0.009823,0.015322,0.979081,0.093925,0.214817,9.770167,-0.004180,0.000723,-0.008555,0.027673,0.829709,-1.212374,100347.0000
1764077418039252952,2025-11-25 19:00:18.036,0.822204,0.620573,71.922256,0.009776,0.015515,0.979134,0.083752,0.220165,9.774984,0.002760,-0.001185,-0.007598,0.027194,0.830185,-1.212374,100344.0000
1764077418138721155,2025-11-25 19:00:18.136,0.818690,0.614358,71.971519,0.009225,0.015784,0.978864,0.086746,0.187863,9.784467,-0.001616,-0.001999,-0.010287,0.027661,0.827321,-1.212337,100350.0000
1764077418238537859,2025-11-25 19:00:18.236,0.815219,0.612596,72.018852,0.009453,0.015553,0.978879,0.103488,0.149282,9.800686,-0.002392,0.002591,-0.009333,0.026707,0.828282,-1.211856,100350.0000
1764077418341330007,2025-11-25 19:00:18.336,0.812124,0.608089,72.069229,0.009192,0.014913,0.978786,0.101324,0.118587,9.810184,-0.000559,-0.001756,-0.011279,0.023811,0.828716,-1.213265,100352.0000
1764077418438762396,2025-11-25 19:00:18.436,0.820269,0.609375,72.116364,0.008901,0.014951,0.978654,0.109091,0.094837,9.798455,0.004919,-0.000968,-0.009770,0.022848,0.830125,-1.214236,100343.0000
1764077418538726377,2025-11-25 19:00:18.536,0.826932,0.609080,72.163620,0.008940,0.015113,0.978604,0.099271,0.090792,9.810665,0.004427,-0.001659,-0.006303,0.025246,0.827757,-1.213753,100346.0000
1764077418641206025,2025-11-25 19:00:18.637,0.834504,0.609743,72.211563,0.009194,0.015494,0.978709,0.095540,0.120699,9.803674,0.004766,0.003590,-0.006385,0.024291,0.829186,-1.213761,100348.0000
1764077418740071581,2025-11-25 19:00:18.736,0.844599,0.609594,72.262314,0.009025,0.015974,0.979117,0.078807,0.129926,9.781660,0.001036,-0.001571,-0.008377,0.022837,0.828681,-1.214695,100346.0000
1764077418839272970,2025-11-25 19:00:18.836,0.846046,0.608793,72.312469,0.009349,0.015781,0.979031,0.075307,0.167118,9.781878,0.003170,-0.001867,-0.010748,0.022863,0.829220,-1.211814,100338.0000
1764077418940034821,2025-11-25 19:00:18.936,0.847741,0.606596,72.364204,0.009121,0.015619,0.978826,0.085102,0.211609,9.764854,0.002746,-0.002444,-0.007758,0.020407,0.825306,-1.215571,100344.0000
1764077419041614544,2025-11-25 19:00:19.036,0.845500,0.607439,72.413460,0.009457,0.015270,0.978649,0.079262,0.222763,9.769513,-0.006277,-0.004039,-0.006069,0.019966,0.827296,-1.211742,100342.0000
1764077419139211877,2025-11-25 19:00:19.136,0.844491,0.608591,72.463699,0.009147,0.015116,0.978761,0.088559,0.216617,9.788564,-0.000270,-0.001535,-0.006595,0.019954,0.826321,-1.212690,100343.0000
1764077419238172655,2025-11-25 19:00:19.236,0.840315,0.609712,72.513107,0.009357,0.015382,0.978841,0.084122,0.189795,9.784005,-0.002085,0.000057,-0.010241,0.020927,0.827768,-1.212245,100351.0000
1764077419340169062,2025-11-25 19:00:19.336,0.839291,0.605284,72.563278,0.009203,0.015230,0.978791,0.104382,0.145612,9.796393,0.003130,-0.004165,-0.009081,0.019978,0.827327,-1.210298,100349.0000
1764077419440793340,2025-11-25 19:00:19.436,0.838764,0.601394,72.613632,0.009201,0.014668,0.978747,0.114692,0.115762,9.804739,0.001732,0.000203,-0.010936,0.017056,0.824865,-1.213107,100347.0000
1764077419539354802,2025-11-25 19:00:19.536,0.845572,0.598592,72.662987,0.009028,0.015257,0.978851,0.090476,0.085627,9.804447,0.002453,0.000995,-0.006360,0.016602,0.827291,-1.211211,100344.0000
1764077419638997451,2025-11-25 19:00:19.636,0.850347,0.595304,72.713966,0.009192,0.015120,0.978796,0.108686,0.092714,9.805545,0.008302,0.002999,-0.008817,0.017067,0.828665,-1.214128,100348.0000
1764077419740276562,2025-11-25 19:00:19.736,0.855542,0.595572,72.762329,0.009356,0.015607,0.978799,0.103721,0.095260,9.792748,-0.000145,-0.000963,-0.006606,0.017065,0.826775,-1.213136,100346.0000
1764077419838879043,2025-11-25 19:00:19.836,0.859168,0.597048,72.806114,0.009206,0.015942,0.979072,0.091885,0.134115,9.792970,-0.004092,0.001398,-0.004137,0.017072,0.827263,-1.212662,100344.0000
1764077419941464895,2025-11-25 19:00:19.936,0.860225,0.599047,72.853477,0.009018,0.015865,0.979147,0.087000,0.162409,9.777955,-0.000977,-0.000738,-0.006920,0.016102,0.827238,-1.213611,100347.0000
1764077420038659265,2025-11-25 19:00:20.036,0.858106,0.600504,72.902519,0.009093,0.015260,0.978689,0.092311,0.188714,9.766814,-0.004157,0.000847,-0.009650,0.014655,0.825809,-1.213086,100344.0000
1764077420138770580,2025-11-25 19:00:20.136,0.859020,0.602045,72.949997,0.009146,0.015462,0.978655,0.088129,0.216647,9.766430,0.004303,0.001376,-0.004492,0.015149,0.826787,-1.212145,100360.0000
1764077420238451969,2025-11-25 19:00:20.236,0.854264,0.600572,73.003738,0.009313,0.015406,0.978662,0.078178,0.208883,9.768505,0.002554,0.004346,-0.007355,0.012730,0.824855,-1.212561,100347.0000
1764077420339595932,2025-11-25 19:00:20.336,0.859094,0.598196,73.056931,0.009613,0.015180,0.978717,0.089650,0.193224,9.777973,0.000991,-0.000992,-0.011130,0.013207,0.824847,-1.213050,100347.0000
1764077420438478395,2025-11-25 19:00:20.436,0.858468,0.592707,73.105515,0.008963,0.014954,0.979000,0.089376,0.150048,9.786311,-0.005978,-0.000527,-0.008746,0.013684,0.824839,-1.213538,100348.0000
1764077420538884728,2025-11-25 19:00:20.536,0.860294,0.585876,73.154617,0.008948,0.015082,0.978763,0.102355,0.127252,9.803814,0.000476,-0.001223,-0.012299,0.011770,0.827686,-1.214035,100349.0000
1764077420640922098,2025-11-25 19:00:20.636,0.859587,0.586100,73.202538,0.008932,0.015309,0.978653,0.123996,0.090208,9.791198,0.005565,-0.004087,-0.007537,0.009382,0.826781,-1.211097,100351.0000
1764077420742502024,2025-11-25 19:00:20.736,0.860072,0.585646,73.252663,0.008973,0.015277,0.978782,0.117981,0.089069,9.808836,0.005117,0.002728,-0.008171,0.008876,0.823883,-1.212490,100345.0000
1764077420842354505,2025-11-25 19:00:20.836,0.864736,0.590406,73.301765,0.008918,0.015421,0.978779,0.090560,0.093803,9.795870,0.005276,-0.004266,-0.006126,0.008882,0.824371,-1.212016,100347.0000
1764077420938497968,2025-11-25 19:00:20.936,0.870430,0.596421,73.350525,0.009240,0.015292,0.978549,0.078572,0.121670,9.795008,0.004641,-0.003415,-0.007528,0.008901,0.826779,-1.211090,100348.0000
1764077421038775802,2025-11-25 19:00:21.036,0.873246,0.599496,73.399971,0.009495,0.015420,0.978794,0.084443,0.153063,9.783237,-0.003355,-0.000183,-0.005430,0.006964,0.825795,-1.212010,100341.0000
1764077421140959635,2025-11-25 19:00:21.136,0.873618,0.596138,73.449211,0.009474,0.015592,0.978852,0.084959,0.204010,9.773917,-0.005278,-0.001606,-0.006672,0.007934,0.824875,-1.210565,100346.0000
1764077421238094968,2025-11-25 19:00:21.236,0.873665,0.585810,73.497253,0.009529,0.015517,0.978912,0.077692,0.212264,9.762404,-0.001160,-0.000400,-0.008831,0.006464,0.825742,-1.214409,100352.0000
1764077421339338653,2025-11-25 19:00:21.337,0.867743,0.580472,73.548180,0.009301,0.015392,0.978894,0.090503,0.208087,9.767464,0.003287,-0.000399,-0.010239,0.006467,0.823394,-1.212447,100342.0000
1764077421438505079,2025-11-25 19:00:21.436,0.864389,0.575186,73.598427,0.009389,0.015033,0.978799,0.218119,-0.001264,9.808493,0.002181,-0.004064,-0.008470,0.006952,0.824819,-1.212958,100347.0000
1764077421538801524,2025-11-25 19:00:21.536,0.857539,0.688909,73.708908,0.008498,0.017976,0.975801,0.182848,0.279315,9.781727,-0.006157,-0.033248,-0.027717,0.001628,0.820943,-1.214265,100344.0000
1764077421638248338,2025-11-25 19:00:21.636,0.833254,0.838411,73.931183,0.017171,0.016580,0.978635,0.130316,0.162264,9.744909,-0.001483,-0.026303,-0.046053,-0.000264,0.824319,-1.212362,100346.0000
1764077421740553949,2025-11-25 19:00:21.736,0.807824,1.038265,74.300797,0.026299,0.018338,0.976854,0.182828,0.000174,9.611516,-0.006539,-0.041759,-0.086458,-0.006998,0.822409,-1.210789,100346.0000
1764077421840168597,2025-11-25 19:00:21.836,0.777024,1.269644,74.982979,0.036038,0.018567,0.979510,0.655820,-0.096985,10.055153,-0.014219,-0.045031,-0.147388,-0.017623,0.817544,-1.212485,100346.0000
1764077421939808949,2025-11-25 19:00:21.936,0.737053,1.226236,76.210884,0.046092,0.022818,0.982539,0.762354,0.503426,9.837334,-0.010186,0.037401,-0.259904,-0.031542,0.818986,-1.208931,100353.0000
1764077422038311708,2025-11-25 19:00:22.036,0.729166,0.974999,77.781563,0.028851,0.009686,0.979817,0.082796,0.331281,9.940261,-0.003375,0.048191,-0.291679,-0.049863,0.809848,-1.207559,100350.0000
1764077422138480505,2025-11-25 19:00:22.136,0.758682,0.660201,79.477783,0.016948,0.008733,0.979251,0.086570,-0.118225,9.682657,0.012222,0.055665,-0.291953,-0.067713,0.806342,-1.211095,100350.0000
1764077422238235134,2025-11-25 19:00:22.236,0.803566,0.406245,81.273224,-0.002096,0.015450,0.979809,-0.432484,-0.084872,9.751364,0.003928,0.029717,-0.330279,-0.087486,0.795765,-1.209680,100355.0000
1764077422339673430,2025-11-25 19:00:22.336,0.831755,0.305968,83.212616,-0.007742,0.017651,0.979201,0.116232,0.103232,9.995188,0.000740,-0.007619,-0.343692,-0.112562,0.786546,-1.210615,100350.0000
1764077422439060745,2025-11-25 19:00:22.436,0.845032,0.356027,85.268150,-0.006115,0.019366,0.978645,0.151141,0.070312,9.656333,-0.004401,-0.025355,-0.371239,-0.137168,0.776832,-1.212513,100349.0000
1764077422538782375,2025-11-25 19:00:22.536,0.863206,0.508083,87.357346,0.001724,0.012224,0.975532,0.123812,0.084051,9.664274,0.008330,-0.037280,-0.349955,-0.160811,0.761938,-1.210974,100345.0000
1764077422638930301,2025-11-25 19:00:22.636,0.881411,0.665300,89.408028,0.011392,0.016458,0.976903,0.351906,-0.112978,9.634754,0.002522,-0.025269,-0.354820,-0.185418,0.750333,-1.211880,100352.0000
1764077422738426523,2025-11-25 19:00:22.736,0.911898,0.745415,91.401901,0.018665,0.016144,0.977827,0.323576,-0.058167,9.860394,-0.000755,-0.005856,-0.344950,-0.209989,0.736939,-1.206980,100346.0000
1764077422839010226,2025-11-25 19:00:22.836,0.927039,0.719165,93.364441,0.018556,0.019475,0.978077,0.112907,-0.193716,9.772310,-0.007127,0.014314,-0.354550,-0.232216,0.721981,-1.208832,100342.0000
1764077422938952467,2025-11-25 19:00:22.936,0.906260,0.622669,95.344345,0.012388,0.019371,0.979080,0.053046,0.259745,9.644628,-0.008543,0.010194,-0.355386,-0.253959,0.708915,-1.211684,100348.0000
1764077423040186782,2025-11-25 19:00:23.037,0.855973,0.527769,97.384636,0.008013,0.017540,0.980599,0.165858,0.029413,9.741322,-0.014315,0.004408,-0.359516,-0.273283,0.694010,-1.211654,100344.0000
1764077423139209319,2025-11-25 19:00:23.136,0.807618,0.473216,99.477257,0.004372,0.015955,0.981640,0.054705,0.085268,9.817054,-0.003904,0.001438,-0.364545,-0.294998,0.678190,-1.209167,100349.0000
1764077423238355819,2025-11-25 19:00:23.236,0.789624,0.476014,101.573929,0.003983,0.010421,0.980514,0.041498,0.157330,9.710231,0.004006,-0.008005,-0.356305,-0.315772,0.660433,-1.208109,100349.0000
1764077423341044634,2025-11-25 19:00:23.336,0.813459,0.520717,103.625351,0.005891,0.012537,0.978411,0.104918,-0.143651,9.714104,0.012680,-0.010345,-0.347161,-0.335115,0.641708,-1.208020,100346.0000
1764077423438598337,2025-11-25 19:00:23.436,0.864207,0.567373,105.628784,0.009639,0.015411,0.976824,0.024906,0.145447,9.783267,-0.001846,-0.005240,-0.354502,-0.355884,0.623493,-1.205992,100348.0000
1764077423538702004,2025-11-25 19:00:23.536,0.909588,0.578847,107.619682,0.011170,0.018975,0.976802,0.059747,0.372400,9.823870,-0.004864,-0.006242,-0.354243,-0.371387,0.605232,-1.207411,100344.0000
1764077423638745226,2025-11-25 19:00:23.636,0.911221,0.553344,109.651314,0.010101,0.018655,0.978146,0.025646,0.344677,9.817788,-0.012486,0.003176,-0.365814,-0.391717,0.583137,-1.208220,100352.0000
1764077423743212670,2025-11-25 19:00:23.741,0.863262,0.518757,111.740547,0.009250,0.018874,0.979050,0.176852,0.002615,9.721567,-0.014735,-0.000965,-0.375587,-0.405761,0.562565,-1.206255,100345.0000
1764077423839455485,2025-11-25 19:00:23.836,0.809236,0.508392,113.855652,0.006778,0.014275,0.980025,0.182380,-0.078795,9.768287,-0.006852,-0.007680,-0.367226,-0.423208,0.538115,-1.206106,100348.0000
1764077423940087522,2025-11-25 19:00:23.936,0.784584,0.529327,115.935577,0.007487,0.013517,0.980776,0.087011,0.209017,9.889873,-0.011054,-0.009446,-0.363930,-0.439174,0.520370,-1.205600,100346.0000
1764077424040008948,2025-11-25 19:00:24.036,0.810778,0.562498,117.965950,0.007804,0.010619,0.978819,0.263587,0.379620,9.931361,0.003057,-0.009843,-0.349052,-0.455646,0.496900,-1.204518,100347.0000
1764077424140392485,2025-11-25 19:00:24.136,0.864394,0.592380,119.967934,0.009688,0.013250,0.977802,0.386985,0.200036,9.994566,0.005618,-0.013701,-0.334392,-0.468746,0.474401,-1.203501,100345.0000
1764077424238280855,2025-11-25 19:00:24.236,0.901716,0.600698,121.986389,0.010723,0.017791,0.977209,0.121989,0.240326,9.830881,0.008563,-0.006518,-0.339786,-0.483784,0.449028,-1.202411,100347.0000
1764077424340055300,2025-11-25 19:00:24.336,0.897622,0.588693,124.033844,0.010582,0.021832,0.977670,0.058800,0.364748,9.797919,-0.000309,-0.005817,-0.352966,-0.496415,0.426968,-1.203333,100352.0000
1764077424438785818,2025-11-25 19:00:24.436,0.852270,0.564763,126.095306,0.009661,0.018829,0.979230,0.083294,0.540921,9.845144,-0.010881,-0.003858,-0.351530,-0.507591,0.403532,-1.201848,100348.0000
1764077424540425559,2025-11-25 19:00:24.536,0.801555,0.546419,128.156845,0.008180,0.015455,0.979829,-0.027884,0.451831,9.956775,-0.014506,-0.004413,-0.359338,-0.517835,0.378607,-1.203243,100348.0000
1764077424638957299,2025-11-25 19:00:24.636,0.777995,0.535427,130.212891,0.008674,0.011299,0.979475,0.409330,0.324160,10.035895,0.001081,-0.004714,-0.352271,-0.527095,0.354214,-1.202253,100346.0000
1764077424738451522,2025-11-25 19:00:24.736,0.798907,0.537195,132.253448,0.007360,0.010624,0.978622,-0.017300,0.046877,9.707476,0.015463,-0.007333,-0.346912,-0.535407,0.328373,-1.202218,100350.0000
1764077424838745873,2025-11-25 19:00:24.836,0.863121,0.543331,134.215683,0.008135,0.012884,0.978278,-0.054975,-0.084392,9.731856,0.014700,-0.012563,-0.329493,-0.542755,0.304426,-1.203189,100344.0000
1764077424938915503,2025-11-25 19:00:24.936,0.933732,0.559012,136.057556,0.011050,0.016368,0.977977,0.081334,-0.003467,9.789165,0.008140,-0.007186,-0.317777,-0.549596,0.279607,-1.200302,100344.0000
1764077425038955021,2025-11-25 19:00:25.036,0.969124,0.536649,137.801697,0.013574,0.018456,0.980208,0.365932,-0.101417,9.823329,-0.001358,0.009043,-0.292912,-0.555006,0.255232,-1.199369,100348.0000
1764077425139811818,2025-11-25 19:00:25.136,0.949829,0.451778,139.455521,0.008265,0.021334,0.978647,0.091414,-0.102816,9.737913,-0.011770,0.005397,-0.280901,-0.558014,0.235573,-1.201915,100346.0000
1764077425238217818,2025-11-25 19:00:25.236,0.900343,0.548000,140.985107,0.003329,0.016985,0.975013,-0.051984,0.270274,9.677851,-0.011148,-0.044421,-0.245415,-0.562916,0.215987,-1.200581,100344.0000
1764077425341550225,2025-11-25 19:00:25.336,0.866354,0.866942,142.368851,0.014974,0.014896,0.976091,0.393390,0.358824,9.835949,-0.005692,-0.068329,-0.221750,-0.569710,0.197419,-1.195863,100347.0000
1764077425440371151,2025-11-25 19:00:25.436,0.876631,1.418797,143.509384,0.035675,0.005402,0.971516,1.066416,0.328597,9.749766,0.007354,-0.139431,-0.147329,-0.577447,0.181256,-1.190205,100348.0000
1764077425538698521,2025-11-25 19:00:25.536,0.905468,2.537086,144.208115,0.072805,0.012431,0.969915,0.179792,0.048262,9.251910,-0.000955,-0.222677,-0.099528,-0.587471,0.174351,-1.175504,100348.0000
1764077425641060466,2025-11-25 19:00:25.636,0.914623,3.729867,144.513138,0.142237,0.010700,0.977210,2.367119,-0.005597,9.972239,0.002940,-0.168263,-0.017729,-0.596993,0.169390,-1.159396,100348.0000
1764077425738984984,2025-11-25 19:00:25.736,0.884659,4.398593,144.569366,0.181010,0.015947,0.978267,1.248966,-0.061733,9.749004,0.002338,-0.058778,0.009373,-0.602675,0.170076,-1.148246,100343.0000
1764077425838729854,2025-11-25 19:00:25.836,0.827514,4.324698,144.363480,0.199571,0.011213,0.977933,2.627100,0.026837,10.051403,-0.008300,0.067995,0.055266,-0.602677,0.170543,-1.148735,100346.0000
1764077425938655243,2025-11-25 19:00:25.936,0.777989,3.673009,144.004456,0.169769,0.012542,0.972070,0.836975,-0.188141,9.507710,-0.004610,0.137910,0.067533,-0.598873,0.175154,-1.157530,100348.0000
1764077426038550539,2025-11-25 19:00:26.036,0.777743,2.813099,143.605453,0.130413,0.011436,0.970276,0.924542,0.141215,9.644901,0.010462,0.146433,0.074067,-0.587371,0.182157,-1.167919,100355.0000
1764077426139008928,2025-11-25 19:00:26.136,0.831029,2.206499,143.190170,0.088675,0.013411,0.968910,1.085639,0.154798,9.606371,0.011519,0.063906,0.074885,-0.581655,0.185800,-1.177691,100350.0000
1764077426238255410,2025-11-25 19:00:26.236,0.923230,2.187858,142.705582,0.066968,0.016933,0.967213,0.307582,0.379240,9.444785,0.021254,-0.049486,0.093295,-0.582103,0.191073,-1.176802,100345.0000
1764077426338740780,2025-11-25 19:00:26.336,1.001508,2.775590,142.131897,0.081446,0.022904,0.971520,1.126727,0.413888,9.594571,0.017236,-0.148748,0.116490,-0.585391,0.197868,-1.171078,100342.0000
1764077426438539095,2025-11-25 19:00:26.436,1.031453,3.719188,141.459259,0.120507,0.028796,0.972029,1.675354,0.571961,9.929824,0.006311,-0.153807,0.127082,-0.589571,0.209557,-1.159636,100348.0000
1764077426538519687,2025-11-25 19:00:26.536,1.018331,4.663788,140.716888,0.155982,0.031366,0.970986,2.540794,0.974906,9.727128,0.007210,-0.144557,0.133794,-0.599532,0.217430,-1.146607,100352.0000
1764077426638994039,2025-11-25 19:00:26.636,0.992103,5.206648,139.942307,0.187961,0.030296,0.972129,2.696221,0.394784,9.878801,0.009213,-0.049791,0.132744,-0.601360,0.226162,-1.139971,100346.0000
1764077426738701557,2025-11-25 19:00:26.736,0.964694,5.141817,139.145706,0.183659,0.032196,0.969128,0.179553,0.034483,9.499268,0.009098,0.049699,0.134680,-0.598905,0.237617,-1.141145,100343.0000
1764077426838806835,2025-11-25 19:00:26.836,0.965136,4.578382,138.352264,0.158241,0.034987,0.970051,2.419590,0.435259,9.956080,0.010047,0.129243,0.137461,-0.590720,0.247095,-1.146707,100346.0000
1764077426938526687,2025-11-25 19:00:26.936,0.981730,3.841289,137.599304,0.104479,0.033223,0.971436,1.291533,0.643850,9.836640,0.006359,0.112861,0.122263,-0.584021,0.256455,-1.157544,100348.0000
1764077427038672279,2025-11-25 19:00:27.036,1.009330,3.320957,136.892914,0.067291,0.033963,0.974710,-0.475808,0.263617,9.887300,0.011934,0.073143,0.112664,-0.579251,0.264382,-1.167849,100342.0000
1764077427138445909,2025-11-25 19:00:27.136,1.021901,3.251630,136.222610,0.044124,0.034859,0.977293,1.615995,0.728679,9.693965,0.007534,-0.018578,0.119322,-0.575359,0.272998,-1.168037,100348.0000
1764077427238034724,2025-11-25 19:00:27.236,0.997920,3.572349,135.588104,0.046852,0.033367,0.978946,-0.508491,0.654181,9.678912,0.007257,-0.081816,0.102587,-0.575275,0.281231,-1.162867,100342.0000
1764077427338426464,2025-11-25 19:00:27.336,0.944084,4.100927,134.991638,0.079459,0.029261,0.977690,2.289948,0.592924,9.818388,-0.000866,-0.089346,0.111358,-0.576157,0.288981,-1.157674,100348.0000
1764077427440895761,2025-11-25 19:00:27.436,0.884349,4.520362,134.453552,0.096488,0.027572,0.975377,-0.041556,-0.203977,9.840417,-0.000347,-0.047489,0.100899,-0.580377,0.298678,-1.150055,100344.0000
1764077427540093001,2025-11-25 19:00:27.536,0.841763,4.654232,134.048141,0.113730,0.024535,0.975415,1.096987,0.223716,10.057029,0.003457,0.007015,0.061107,-0.579861,0.303488,-1.148691,100346.0000
1764077427638526298,2025-11-25 19:00:27.636,0.833827,4.481490,133.805374,0.108139,0.020664,0.973480,0.918351,0.077602,10.007139,0.007970,0.055559,0.030348,-0.576985,0.308186,-1.153139,100348.0000
1764077427739827038,2025-11-25 19:00:27.736,0.841935,4.149754,133.712997,0.087114,0.016705,0.973981,0.562529,0.129349,9.401127,0.009279,0.068988,0.012111,-0.572678,0.309557,-1.157076,100350.0000
1764077427840829001,2025-11-25 19:00:27.836,0.852567,3.829385,133.704727,0.064572,0.014817,0.974905,0.186712,0.233893,9.185297,0.003207,0.032290,0.003065,-0.570318,0.306620,-1.160919,100345.0000
1764077427940467927,2025-11-25 19:00:27.936,0.850943,3.652089,133.724960,0.058385,0.014204,0.980799,-0.032574,-0.244649,9.741916,-0.005854,0.014292,-0.008902,-0.570326,0.308013,-1.162866,100353.0000
1764077428038398705,2025-11-25 19:00:28.036,0.839552,3.619693,133.824905,0.056630,0.013517,0.982256,2.498007,-0.216314,10.786655,-0.000712,-0.008914,-0.024344,-0.567928,0.306591,-1.162880,100351.0000
1764077428138970779,2025-11-25 19:00:28.136,0.822417,3.692344,134.043137,0.062160,0.009181,0.979626,1.036459,0.243777,9.586915,-0.001977,0.000226,-0.047249,-0.568407,0.306121,-1.162384,100345.0000
1764077428238054186,2025-11-25 19:00:28.236,0.803239,3.790832,134.344162,0.058491,0.008063,0.972507,-0.352012,0.532703,9.204769,-0.008092,-0.030834,-0.068388,-0.572261,0.299020,-1.158366,100341.0000
1764077428339420760,2025-11-25 19:00:28.336,0.800924,3.836529,134.729584,0.072203,0.003012,0.973876,0.897061,-0.108994,9.567112,-0.007066,-0.001330,-0.076133,-0.573716,0.297570,-1.158805,100347.0000
1764077428441557390,2025-11-25 19:00:28.436,0.806206,3.781928,135.189468,0.070974,0.001431,0.975828,1.503343,0.081395,9.972951,-0.010843,0.007226,-0.087779,-0.574244,0.292730,-1.161613,100348.0000
1764077428539246834,2025-11-25 19:00:28.536,0.823740,3.616014,135.744171,0.072891,0.001619,0.977376,1.890152,0.162272,9.770971,0.001244,0.038276,-0.104022,-0.575740,0.284572,-1.162911,100345.0000
1764077428638824038,2025-11-25 19:00:28.636,0.848206,3.437838,136.378922,0.056429,0.000119,0.979172,1.454666,0.460721,9.887677,0.005213,0.034426,-0.113575,-0.576300,0.273990,-1.166112,100348.0000
1764077428740037556,2025-11-25 19:00:28.736,0.876480,3.320720,137.076523,0.045776,0.000645,0.978344,-1.117836,0.518799,9.818462,-0.002648,0.015888,-0.126401,-0.576317,0.268289,-1.164580,100351.0000
1764077428839115964,2025-11-25 19:00:28.836,0.900931,3.282991,137.843384,0.043697,-0.000009,0.977931,0.992595,0.244549,9.861682,-0.009623,-0.007205,-0.139058,-0.578795,0.257718,-1.166791,100350.0000
1764077428938442797,2025-11-25 19:00:28.936,0.903400,3.288210,138.682892,0.051571,-0.001600,0.978352,0.255641,-0.230585,9.593529,-0.007146,0.007787,-0.145728,-0.578854,0.246721,-1.167103,100354.0000
1764077429038689982,2025-11-25 19:00:29.036,0.879756,3.347995,139.609772,0.045034,0.000804,0.976533,0.507982,0.330146,9.709814,-0.011363,-0.022525,-0.174836,-0.585665,0.232350,-1.167266,100350.0000
1764077429138977630,2025-11-25 19:00:29.137,0.857550,3.394852,140.581833,0.059680,-0.010900,0.976267,-0.110993,-0.262434,9.727379,-0.005694,-0.004315,-0.153944,-0.585212,0.221437,-1.163735,100344.0000
1764077429238488389,2025-11-25 19:00:29.236,0.843592,3.422358,141.595642,0.056532,-0.003625,0.978837,0.840790,0.126655,9.644708,-0.020377,-0.011682,-0.193372,-0.589624,0.208947,-1.165887,100343.0000
1764077429339376537,2025-11-25 19:00:29.336,0.840870,3.427428,142.660812,0.058832,-0.011900,0.976954,-0.408711,0.010015,9.737408,-0.007764,0.000014,-0.176342,-0.591603,0.195594,-1.164209,100348.0000
1764077429439989630,2025-11-25 19:00:29.436,0.827236,3.418288,143.806580,0.060847,-0.001760,0.979073,2.132905,0.003315,10.109856,-0.019396,0.007181,-0.211846,-0.594557,0.180793,-1.162977,100350.0000
1764077429539407000,2025-11-25 19:00:29.536,0.813166,3.382403,144.994293,0.051450,-0.015536,0.977110,-0.602066,0.037843,9.708431,-0.009184,-0.001925,-0.210751,-0.592726,0.165943,-1.165185,100349.0000
1764077429638754389,2025-11-25 19:00:29.636,0.814749,3.341949,146.234879,0.058843,-0.014522,0.976370,0.858510,-0.828110,9.685675,-0.006116,0.012644,-0.215238,-0.595692,0.149222,-1.164405,100349.0000
1764077429740128889,2025-11-25 19:00:29.736,0.832982,3.316489,147.519653,0.045377,-0.011412,0.974892,0.119893,0.906536,9.584887,-0.002204,-0.010713,-0.219601,-0.595770,0.130633,-1.162194,100345.0000
1764077429840331315,2025-11-25 19:00:29.836,0.850786,3.335212,148.834366,0.053118,-0.012662,0.979451,0.228967,-0.717488,9.722024,-0.012420,-0.000307,-0.232749,-0.598265,0.115773,-1.163857,100346.0000
1764077429939548648,2025-11-25 19:00:29.936,0.872281,3.286679,150.157562,0.047592,-0.014899,0.981880,-0.215447,0.293751,9.525863,-0.011703,0.013766,-0.233341,-0.597863,0.099067,-1.163126,100346.0000
1764077430038466278,2025-11-25 19:00:30.036,0.896631,2.853274,151.457825,0.057572,-0.013661,0.986498,0.607767,-0.077133,9.906853,-0.008689,0.127912,-0.229766,-0.591742,0.080831,-1.168236,100346.0000
1764077430138727129,2025-11-25 19:00:30.136,0.905355,1.997543,152.715012,0.022989,-0.013141,0.983213,-0.186026,-0.304458,9.665344,-0.001041,0.173265,-0.219451,-0.583736,0.064382,-1.179661,100346.0000
1764077430238152204,2025-11-25 19:00:30.236,0.880397,1.129650,153.949997,-0.021340,-0.006545,0.977310,-0.913723,-0.395926,9.677558,-0.014758,0.114141,-0.220406,-0.574305,0.046476,-1.192529,100342.0000
1764077430339263537,2025-11-25 19:00:30.336,0.815316,0.930676,155.231903,-0.047421,-0.005530,0.971609,0.978585,-0.217582,9.612144,-0.017264,-0.041280,-0.213856,-0.572016,0.029209,-1.196152,100347.0000
1764077430439663518,2025-11-25 19:00:30.436,0.744628,1.668646,156.561386,-0.023903,-0.013488,0.970078,-0.234566,-0.903702,9.676027,-0.015850,-0.187582,-0.227490,-0.577800,0.012658,-1.186664,100341.0000
1764077430540123092,2025-11-25 19:00:30.536,0.715888,3.051248,157.905334,0.033242,-0.013720,0.968886,1.077792,0.330258,9.830318,-0.010113,-0.264219,-0.234841,-0.584467,-0.003216,-1.167542,100347.0000
1764077430639043222,2025-11-25 19:00:30.636,0.729826,4.309339,159.244949,0.107628,-0.018823,0.976844,0.938825,-0.634047,9.835579,-0.002118,-0.178425,-0.228736,-0.594543,-0.020629,-1.152680,100352.0000
1764077430739387814,2025-11-25 19:00:30.736,0.772166,4.822002,160.510895,0.150268,-0.018511,0.980124,2.865893,0.062651,9.926415,-0.012568,-0.016460,-0.203895,-0.599368,-0.036241,-1.144184,100348.0000
1764077430838655314,2025-11-25 19:00:30.836,0.819349,4.454597,161.697128,0.139474,-0.016577,0.977917,2.054142,-0.451822,10.030322,-0.007898,0.125903,-0.203888,-0.592264,-0.052064,-1.148381,100342.0000
1764077430938864703,2025-11-25 19:00:30.936,0.872323,3.598453,162.785141,0.085185,-0.012710,0.975755,1.510708,0.276675,9.705433,0.002886,0.169244,-0.185572,-0.582815,-0.068506,-1.159828,100348.0000
1764077431038869870,2025-11-25 19:00:31.036,0.926356,2.766011,163.825882,0.019452,-0.009728,0.978775,0.803434,0.414996,9.779464,0.002692,0.104904,-0.168529,-0.569956,-0.079638,-1.169479,100355.0000
1764077431138472703,2025-11-25 19:00:31.136,0.989389,2.481709,164.802902,-0.033928,-0.004849,0.981577,0.303249,-0.123520,9.698272,0.001822,-0.010908,-0.168869,-0.564307,-0.093140,-1.176580,100351.0000
1764077431238839814,2025-11-25 19:00:31.236,1.074785,2.957376,165.694260,-0.048775,-0.009568,0.979466,-0.443843,-0.100502,10.048007,0.015728,-0.141911,-0.144177,-0.563352,-0.106825,-1.168680,100348.0000
1764077431338348777,2025-11-25 19:00:31.336,1.208447,3.939642,166.586533,-0.014552,-0.004207,0.981619,-0.047310,-0.382312,9.535372,0.020364,-0.190560,-0.172519,-0.570520,-0.118514,-1.154911,100350.0000
1764077431439024481,2025-11-25 19:00:31.436,1.424150,4.854351,167.541641,0.054059,-0.005338,0.985576,0.574781,0.670425,10.364549,0.039973,-0.100382,-0.134137,-0.576264,-0.131660,-1.142586,100350.0000
1764077431538931592,2025-11-25 19:00:31.536,1.669697,5.083853,168.534668,0.100278,0.007370,0.979549,0.044478,-0.332602,9.336162,0.035750,0.043796,-0.200537,-0.572919,-0.145376,-1.136647,100339.0000
1764077431638781443,2025-11-25 19:00:31.636,1.784640,4.326645,169.494492,0.067755,0.030250,0.983287,0.432534,0.068814,10.338192,-0.007300,0.183710,-0.130264,-0.562963,-0.158919,-1.146701,100345.0000
1764077431739183277,2025-11-25 19:00:31.736,1.690879,2.929271,170.341339,0.066144,0.014899,0.984259,2.589257,-0.075780,10.759245,-0.002513,0.303788,-0.093586,-0.547739,-0.168262,-1.162675,100346.0000
1764077431841133277,2025-11-25 19:00:31.836,1.568272,1.093750,171.105331,-0.004145,0.021967,0.975727,-0.084532,0.348995,9.528314,-0.033705,0.311216,-0.129859,-0.528248,-0.177282,-1.186903,100348.0000
1764077431940012795,2025-11-25 19:00:31.936,1.305447,-0.520453,171.823914,-0.112660,0.025971,0.980430,-1.355787,-2.140060,9.317079,-0.051813,0.262563,-0.156958,-0.509716,-0.183937,-1.212118,100358.0000
1764077432030597091,2025-11-25 19:00:32.028,1.033758,-1.447054,172.628189,-0.198297,0.002436,0.971452,-2.196053,-1.029600,9.381611,-0.038439,0.063649,-0.144245,-0.493483,-0.190796,-1.223810,100352.0000
1764077432138425832,2025-11-25 19:00:32.136,0.837613,-1.350533,173.598953,-0.208302,-0.000028,0.975732,-1.366984,-1.231101,9.694496,-0.009737,-0.119443,-0.178242,-0.490181,-0.201798,-1.225136,100346.0000
1764077432238195221,2025-11-25 19:00:32.236,0.754365,-0.357854,174.658325,-0.165283,0.009910,0.965472,-1.696321,0.015943,9.042260,-0.012410,-0.211663,-0.189305,-0.492561,-0.212581,-1.214822,100354.0000
1764077432339163499,2025-11-25 19:00:32.336,0.707178,1.059343,175.781219,-0.112725,0.008295,0.959141,-1.422304,1.141292,9.197123,-0.013556,-0.298743,-0.211908,-0.498731,-0.224641,-1.196247,100351.0000
1764077432441216128,2025-11-25 19:00:32.436,0.671418,2.721476,176.896881,-0.044152,0.004030,0.962370,-0.044041,-0.071220,9.625199,-0.014547,-0.300078,-0.197421,-0.508274,-0.238618,-1.177112,100350.0000
1764077432538939943,2025-11-25 19:00:32.536,0.687257,4.195898,178.064545,0.018100,0.002053,0.968747,0.707581,0.035030,9.915418,-0.004184,-0.232168,-0.197017,-0.514449,-0.251633,-1.158522,100346.0000
1764077432640153535,2025-11-25 19:00:32.636,0.808100,4.947783,179.340622,0.060810,0.000949,0.984528,0.403789,-0.427896,9.106692,0.010898,-0.068091,-0.233700,-0.510576,-0.265224,-1.146813,100352.0000
1764077432738466406,2025-11-25 19:00:32.736,0.985587,4.855456,180.648941,0.072731,0.010473,0.989375,0.029916,0.616614,9.695260,0.017039,0.082911,-0.235059,-0.506333,-0.281934,-1.147102,100352.0000
1764077432838564332,2025-11-25 19:00:32.836,1.135211,4.079066,182.026108,0.057447,0.020076,0.993161,0.523171,-0.012087,10.317965,0.001993,0.169596,-0.244151,-0.488681,-0.298278,-1.155781,100350.0000
1764077432938901980,2025-11-25 19:00:32.936,1.129222,3.082435,183.479202,0.010231,0.038640,0.986424,-0.250080,0.509894,9.778366,-0.035063,0.156700,-0.255807,-0.470569,-0.314204,-1.167363,100351.0000
1764077433041496646,2025-11-25 19:00:33.036,0.915871,2.347741,184.971786,-0.011496,0.031961,0.983831,-0.271332,0.860164,9.813740,-0.053383,0.088978,-0.260864,-0.451946,-0.327221,-1.177070,100352.0000
1764077433140074202,2025-11-25 19:00:33.136,0.742597,1.939871,186.564590,-0.009731,0.009347,0.981754,-0.633920,-0.087851,9.583234,-0.021351,0.039800,-0.288197,-0.437163,-0.341647,-1.184773,100348.0000
1764077433238239757,2025-11-25 19:00:33.236,0.787237,1.770654,188.308197,-0.000424,-0.002937,0.978316,-0.095037,0.377598,9.538289,0.017087,0.006409,-0.317382,-0.421419,-0.362198,-1.188544,100354.0000
1764077433339596609,2025-11-25 19:00:33.336,1.081816,1.741792,190.149963,0.006522,-0.001249,0.973835,0.385506,-0.097369,9.837931,0.052401,-0.015854,-0.325306,-0.404665,-0.385447,-1.184583,100349.0000
1764077433442083535,2025-11-25 19:00:33.440,1.486265,1.736296,191.956253,0.023748,0.014868,0.970588,0.268967,-0.008753,9.778337,0.061361,0.001355,-0.305055,-0.391743,-0.405369,-1.180617,100351.0000
1764077433538667794,2025-11-25 19:00:33.536,1.808329,1.622692,193.681931,0.033757,0.037518,0.973072,0.131715,0.718767,9.753189,0.040191,0.023950,-0.300284,-0.376429,-0.427202,-1.177138,100350.0000
1764077433640344405,2025-11-25 19:00:33.636,1.936149,1.380197,195.405289,0.037370,0.050516,0.976667,0.066909,0.364042,9.623396,-0.006056,0.036567,-0.299534,-0.357744,-0.442413,-1.177662,100352.0000
1764077433740641331,2025-11-25 19:00:33.736,1.820776,1.132322,197.185730,0.031473,0.054132,0.981860,0.383238,0.312540,9.797720,-0.042458,0.025611,-0.316323,-0.338126,-0.458170,-1.181563,100358.0000
1764077433839854627,2025-11-25 19:00:33.836,1.563105,0.978048,198.986069,0.026328,0.037188,0.983168,0.297624,0.501706,9.799188,-0.053184,0.001128,-0.308259,-0.318026,-0.474391,-1.184983,100352.0000
1764077433940439961,2025-11-25 19:00:33.936,1.298285,0.996018,200.742218,0.018242,0.021504,0.977725,0.451520,1.033488,9.921152,-0.033973,-0.036384,-0.298832,-0.304140,-0.484878,-1.186953,100346.0000
1764077434038428479,2025-11-25 19:00:34.036,1.101726,1.162975,202.450241,0.033440,0.011292,0.978596,0.841384,-0.584328,9.871959,-0.017168,-0.033248,-0.286866,-0.287853,-0.497722,-1.187960,100348.0000
1764077434139137831,2025-11-25 19:00:34.136,1.052909,1.355149,204.111435,0.039563,-0.001801,0.970733,0.268321,-0.131434,9.656825,0.006180,-0.037543,-0.279233,-0.272048,-0.512926,-1.187479,100350.0000
1764077434237932960,2025-11-25 19:00:34.236,1.148216,1.443204,205.728699,0.051537,0.001549,0.973338,0.112954,0.475082,9.457033,0.019905,-0.010255,-0.283363,-0.254289,-0.522390,-1.187114,100354.0000
1764077434338784646,2025-11-25 19:00:34.336,1.310349,1.376621,207.315643,0.050822,0.009445,0.978305,0.722628,0.043151,9.928749,0.012445,0.002152,-0.279228,-0.237966,-0.535610,-1.183300,100350.0000
1764077434440839608,2025-11-25 19:00:34.436,1.480040,1.181522,208.849167,0.048006,0.017714,0.988197,0.580323,0.335875,10.007899,0.023523,0.047170,-0.263699,-0.219773,-0.549909,-1.185758,100351.0000
1764077434540343127,2025-11-25 19:00:34.536,1.578202,0.972053,210.285599,0.017369,0.030663,0.982768,0.003218,0.161808,9.831183,0.006935,0.022623,-0.241099,-0.201067,-0.560821,-1.186348,100351.0000
1764077434638542164,2025-11-25 19:00:34.636,1.554333,0.920466,211.589828,0.009640,0.033208,0.977414,-0.201853,0.269681,9.589705,-0.017958,-0.019737,-0.220602,-0.184250,-0.566935,-1.185539,100346.0000
1764077434741157053,2025-11-25 19:00:34.736,1.450130,1.047306,212.748505,0.009566,0.022777,0.973760,0.143092,0.402116,9.819366,-0.022914,-0.043478,-0.190233,-0.172269,-0.575022,-1.186555,100358.0000
1764077434840461219,2025-11-25 19:00:34.836,1.329920,1.241966,213.816055,0.022219,0.015635,0.973717,0.479133,0.061332,9.911261,-0.018859,-0.036996,-0.172650,-0.158817,-0.579728,-1.186200,100348.0000
1764077434939709164,2025-11-25 19:00:34.936,1.259523,1.335739,214.875793,0.033219,0.013976,0.976923,-0.058477,0.033673,9.385866,-0.013296,-0.007215,-0.191330,-0.147786,-0.584486,-1.187734,100347.0000
1764077435038820034,2025-11-25 19:00:35.036,1.273399,1.276340,215.925964,0.027973,0.007004,0.978750,-0.578840,0.641418,9.579839,0.011433,0.013020,-0.185923,-0.135308,-0.591584,-1.187328,100352.0000
1764077435139130849,2025-11-25 19:00:35.136,1.327744,1.160952,216.961639,0.021356,0.015486,0.979663,0.098877,0.315497,9.436303,0.007863,0.009166,-0.182367,-0.122327,-0.595794,-1.186010,100353.0000
1764077435238371738,2025-11-25 19:00:35.236,1.373573,1.048336,217.970352,0.017402,0.019733,0.981384,-0.434765,0.955464,9.506499,0.002996,0.015214,-0.171333,-0.109852,-0.602903,-1.186085,100350.0000
1764077435339343978,2025-11-25 19:00:35.336,1.394058,0.979688,218.953247,0.012627,0.021025,0.980473,-0.087587,0.213582,9.514986,-0.002940,0.003740,-0.172096,-0.096903,-0.606728,-1.189107,100354.0000
1764077435439141460,2025-11-25 19:00:35.436,1.409295,0.956448,219.896118,0.013321,0.022840,0.979627,-0.478829,0.472248,9.334207,0.003609,-0.008106,-0.163039,-0.085861,-0.613812,-1.187717,100348.0000
1764077435541289237,2025-11-25 19:00:35.536,1.423463,0.955581,220.802460,0.015608,0.022241,0.979482,0.160949,0.117991,10.021614,-0.004373,-0.015366,-0.150617,-0.075775,-0.615698,-1.188799,100349.0000
1764077435640907700,2025-11-25 19:00:35.636,1.418651,0.972384,221.704224,0.017922,0.023961,0.978445,-0.492916,0.515351,9.618702,-0.004846,-0.008362,-0.166890,-0.064723,-0.623230,-1.185957,100351.0000
1764077435740819497,2025-11-25 19:00:35.736,1.370105,0.980597,222.634766,0.018994,0.021448,0.978401,0.761800,0.025282,9.954519,-0.007867,0.003556,-0.161868,-0.052726,-0.624203,-1.189490,100356.0000
1764077435840002663,2025-11-25 19:00:35.836,1.320843,0.971170,223.586929,0.018055,0.019004,0.976854,0.385063,-0.063560,9.646913,-0.014004,0.007037,-0.176042,-0.040687,-0.628366,-1.185751,100352.0000
1764077435938645311,2025-11-25 19:00:35.936,1.328405,0.923657,224.524948,0.016629,0.011198,0.975507,-0.591899,0.199230,9.639800,0.009229,0.009172,-0.151267,-0.025812,-0.634062,-1.187328,100352.0000
1764077436038848126,2025-11-25 19:00:36.036,1.395910,0.780950,225.433685,0.026059,0.016785,0.977808,0.814718,0.360379,10.000945,0.009922,0.017508,-0.162762,-0.015234,-0.635448,-1.187462,100351.0000
1764077436138345681,2025-11-25 19:00:36.136,1.474523,0.582315,226.320938,0.017561,0.020333,0.980519,0.498009,0.360372,9.654139,0.008549,0.034264,-0.160557,-0.002744,-0.637800,-1.188574,100353.0000
1764077436238593941,2025-11-25 19:00:36.236,1.502379,0.424395,227.239090,0.010159,0.032764,0.981158,-0.239032,0.710607,10.131966,-0.002804,0.027923,-0.159631,0.011666,-0.643457,-1.188218,100358.0000
1764077436339501478,2025-11-25 19:00:36.336,1.409899,0.362422,228.247421,0.005640,0.033465,0.984076,0.322065,-0.054696,9.987562,-0.024107,-0.009978,-0.179736,0.024670,-0.642423,-1.187462,100351.0000
1764077436438707404,2025-11-25 19:00:36.436,1.292914,0.342939,229.274185,0.003815,0.022620,0.980129,-0.079226,0.462832,9.531366,-0.020374,0.003180,-0.176604,0.038118,-0.645726,-1.188572,100352.0000
1764077436539924626,2025-11-25 19:00:36.536,1.246664,0.291566,230.259064,0.003726,0.013268,0.977157,0.379641,0.388022,9.953339,-0.001816,0.018920,-0.180965,0.050599,-0.647632,-1.191135,100354.0000
1764077436638281700,2025-11-25 19:00:36.636,1.271530,0.234502,231.271545,0.000441,0.012883,0.969492,0.171998,-0.286704,9.414600,0.016665,0.006750,-0.186614,0.064059,-0.649960,-1.191297,100347.0000
1764077436738474922,2025-11-25 19:00:36.736,1.333305,0.177129,232.344337,0.005867,0.017198,0.973966,-0.567717,0.709459,9.745090,0.016145,-0.000645,-0.188501,0.079949,-0.653629,-1.187622,100344.0000
1764077436841341144,2025-11-25 19:00:36.836,1.387710,0.071096,233.443092,0.010039,0.025358,0.980531,-0.038771,0.231366,9.837974,0.009935,0.008673,-0.194408,0.095329,-0.654545,-1.189280,100348.0000
1764077436938878496,2025-11-25 19:00:36.936,1.396704,-0.054486,234.525352,0.005906,0.029430,0.986767,-0.247943,0.149319,9.944893,-0.000861,0.006718,-0.182362,0.109267,-0.656881,-1.189931,100353.0000
1764077437038813403,2025-11-25 19:00:37.036,1.338334,-0.179016,235.651443,0.003723,0.031148,0.984542,-0.282494,0.083373,9.541473,-0.013793,0.010256,-0.202623,0.126118,-0.657720,-1.188239,100348.0000
1764077437138519199,2025-11-25 19:00:37.136,1.257437,-0.258637,236.857620,-0.001768,0.026917,0.980202,0.051438,0.575505,9.945941,-0.008744,0.013315,-0.231546,0.143409,-0.659136,-1.191362,100347.0000
1764077437238325366,2025-11-25 19:00:37.236,1.197647,-0.283664,238.115257,-0.002025,0.014750,0.971181,0.064161,0.119370,9.668615,-0.007211,-0.005972,-0.214376,0.160248,-0.658593,-1.192099,100352.0000
1764077437339172440,2025-11-25 19:00:37.336,1.181139,-0.318995,239.381508,-0.000213,0.014775,0.971642,0.052937,0.294827,9.736966,0.002366,-0.001036,-0.210521,0.176608,-0.657574,-1.192838,100346.0000
1764077437441174496,2025-11-25 19:00:37.436,1.195576,-0.353789,240.604095,-0.006277,0.019462,0.976044,-0.402110,0.864820,9.612398,-0.002050,-0.002210,-0.198455,0.193424,-0.663221,-1.192517,100345.0000
1764077437540235625,2025-11-25 19:00:37.536,1.197036,-0.326602,241.761856,-0.013466,0.024835,0.980133,0.006716,0.485059,9.982421,-0.011587,-0.028019,-0.199972,0.206919,-0.661686,-1.190813,100353.0000
1764077437638668958,2025-11-25 19:00:37.636,1.166063,-0.227463,242.898506,-0.010307,0.020701,0.982932,0.049083,0.325696,9.985185,0.003006,-0.020159,-0.192133,0.219921,-0.656414,-1.193011,100348.0000
1764077437740109255,2025-11-25 19:00:37.736,1.132190,-0.127735,244.027992,-0.009826,0.018626,0.980220,-0.404779,0.134537,9.455788,0.000982,-0.024627,-0.191893,0.239159,-0.658706,-1.192778,100349.0000
1764077437839084958,2025-11-25 19:00:37.836,1.133893,-0.070982,245.193985,0.007538,0.023965,0.977900,0.654885,-0.019610,10.189909,-0.001971,-0.008448,-0.218511,0.247355,-0.655326,-1.192950,100352.0000
1764077437938652736,2025-11-25 19:00:37.936,1.147336,-0.163531,246.412285,0.013345,0.017928,0.979274,0.074351,-0.268993,9.673269,0.004490,0.030413,-0.220134,0.268069,-0.654226,-1.190863,100351.0000
1764077438040842977,2025-11-25 19:00:38.036,1.167389,-0.344712,247.602211,-0.003818,0.017597,0.978679,-0.560269,0.536579,9.515318,0.019607,0.022862,-0.219096,0.285414,-0.651729,-1.189712,100356.0000
1764077438138544014,2025-11-25 19:00:38.136,1.155789,-0.441891,248.746132,-0.016678,0.024744,0.976997,-0.028468,0.759641,9.632089,-0.003581,0.000951,-0.183440,0.304632,-0.652659,-1.192870,100346.0000
1764077438238034477,2025-11-25 19:00:38.236,1.123089,-0.457254,249.809204,-0.015766,0.023029,0.980975,1.119891,1.709635,10.085860,-0.006780,-0.003034,-0.182629,0.314770,-0.649697,-1.190656,100344.0000
1764077438340515847,2025-11-25 19:00:38.336,1.081308,-0.339245,250.843842,-0.020344,0.016758,0.975371,0.091416,-1.507238,9.607471,-0.009773,-0.030216,-0.164849,0.328741,-0.645346,-1.191410,100352.0000
1764077438438550236,2025-11-25 19:00:38.436,1.048012,-0.141823,251.876892,-0.010315,0.020593,0.976450,-0.190145,0.622291,10.034534,0.001910,-0.036457,-0.187570,0.337903,-0.641951,-1.191115,100346.0000
1764077438538792606,2025-11-25 19:00:38.536,1.091545,0.026310,252.588165,0.009442,0.002891,0.978448,0.577085,-0.407899,9.941727,0.011574,-0.017173,-0.089765,0.347522,-0.640505,-1.192723,100348.0000
1764077438638559606,2025-11-25 19:00:38.636,1.207886,0.015766,252.969414,0.019640,0.014263,0.981461,0.088900,0.511246,9.865501,0.022830,0.027838,-0.043592,0.351871,-0.642792,-1.188900,100351.0000
1764077438738677550,2025-11-25 19:00:38.736,1.293353,-0.196374,253.119377,0.007881,0.024687,0.981520,-0.185589,0.210328,9.694692,0.008641,0.040469,-0.014377,0.352353,-0.641845,-1.189403,100352.0000
1764077438838622809,2025-11-25 19:00:38.836,1.269891,-0.383391,253.083611,-0.010020,0.029103,0.978600,-0.113007,0.199979,9.847183,-0.013388,0.019893,0.019590,0.354758,-0.642779,-1.188942,100346.0000
1764077438940639680,2025-11-25 19:00:38.936,1.154907,-0.370947,252.867378,-0.016058,0.025466,0.978694,-0.045530,0.142488,9.834727,-0.022331,-0.024796,0.056268,0.353305,-0.642339,-1.190373,100344.0000
1764077439039051291,2025-11-25 19:00:39.036,1.029512,-0.207645,252.465431,-0.005866,0.016421,0.978609,0.069657,0.220316,9.802067,-0.014467,-0.034414,0.088199,0.347028,-0.641483,-1.193664,100341.0000
1764077439138546532,2025-11-25 19:00:39.136,0.978224,-0.050036,251.893318,0.009591,0.008476,0.978445,0.130583,0.022813,9.777079,0.006352,-0.023656,0.116923,0.336439,-0.642953,-1.193004,100352.0000
1764077439238031698,2025-11-25 19:00:39.236,1.005265,-0.008934,251.205101,0.015248,0.011038,0.978438,0.182528,0.234283,9.765877,0.014930,0.006278,0.130070,0.329676,-0.645412,-1.194794,100354.0000
1764077439338512198,2025-11-25 19:00:39.336,1.048788,-0.046695,250.461861,0.010236,0.018952,0.977419,0.012502,0.241304,9.763163,0.005542,0.014016,0.133739,0.319087,-0.649241,-1.192653,100353.0000
1764077439441355217,2025-11-25 19:00:39.436,1.047446,-0.094367,249.730240,0.003305,0.024621,0.978367,-0.017805,0.204230,9.759256,-0.002120,0.008162,0.128318,0.312353,-0.647381,-1.193546,100348.0000
1764077439538791939,2025-11-25 19:00:39.536,1.007727,-0.118820,249.005119,0.001112,0.021062,0.980053,0.069860,0.088252,9.836513,0.001525,0.004623,0.129316,0.300797,-0.652168,-1.191376,100349.0000
1764077439638926642,2025-11-25 19:00:39.636,0.993184,-0.140675,248.253265,0.003327,0.018239,0.980306,-0.013314,-0.223409,9.799847,-0.008611,0.007565,0.134096,0.292598,-0.653669,-1.192677,100350.0000
1764077439739023531,2025-11-25 19:00:39.736,1.019949,-0.199776,247.430725,0.001367,0.014866,0.978892,0.156111,0.227741,9.879557,0.007278,0.011453,0.149656,0.282969,-0.651842,-1.194490,100350.0000
1764077439839934735,2025-11-25 19:00:39.836,1.078114,-0.276668,246.536530,0.001786,0.014950,0.979962,0.291981,-0.003841,10.008364,0.015286,0.020517,0.162702,0.271415,-0.657097,-1.191832,100343.0000
1764077439938943309,2025-11-25 19:00:39.936,1.117620,-0.346903,245.612984,-0.005789,0.021503,0.978320,-0.215134,0.198981,9.726427,0.006295,0.015538,0.160959,0.258896,-0.658119,-1.192114,100345.0000
1764077440038869679,2025-11-25 19:00:40.036,1.092443,-0.345474,244.720543,-0.013329,0.026131,0.975322,-0.321703,0.280536,9.672080,-0.012184,-0.007927,0.153781,0.249290,-0.656231,-1.191038,100350.0000
1764077440138254438,2025-11-25 19:00:40.136,1.021185,-0.232452,243.884064,-0.012098,0.022860,0.975027,0.000395,0.093319,9.796449,-0.014329,-0.028354,0.151365,0.233379,-0.659220,-1.193166,100353.0000
1764077440238257531,2025-11-25 19:00:40.236,0.964626,-0.072200,243.082176,-0.000981,0.016538,0.978187,0.127189,0.094908,9.873813,-0.000642,-0.026512,0.143695,0.223773,-0.656387,-1.192586,100353.0000
1764077440340666031,2025-11-25 19:00:40.336,0.970776,0.036229,242.276550,0.006072,0.014448,0.979698,-0.038858,0.218714,9.715610,0.007759,-0.009135,0.145203,0.209321,-0.659328,-1.192810,100344.0000
1764077440443224383,2025-11-25 19:00:40.436,1.019079,0.046417,241.459061,0.007915,0.016751,0.981535,0.048080,0.291164,9.812075,0.007972,0.009459,0.146250,0.201139,-0.659842,-1.192682,100346.0000
1764077440538498975,2025-11-25 19:00:40.536,1.069251,0.023538,240.649002,-0.001084,0.029613,0.982526,2.348612,4.216465,10.687582,0.004439,0.015616,0.097436,0.192969,-0.657968,-1.192591,100346.0000
1764077440638715660,2025-11-25 19:00:40.636,1.087460,0.074723,239.877327,-0.010788,0.007830,0.977744,-0.363798,-1.150814,9.620494,0.010070,-0.006388,0.134388,0.179501,-0.659431,-1.190925,100351.0000
1764077440740443882,2025-11-25 19:00:40.736,1.064142,0.214694,239.121239,-0.009089,0.026007,0.976873,-0.678796,0.922067,9.548777,-0.004768,-0.026397,0.128836,0.167456,-0.660471,-1.192177,100352.0000
1764077440840227586,2025-11-25 19:00:40.836,1.045735,0.370932,238.388863,-0.000544,0.018583,0.973838,0.053714,-0.167961,9.678806,-0.007605,-0.031298,0.127326,0.156383,-0.661009,-1.192487,100344.0000
1764077440938843993,2025-11-25 19:00:40.936,1.046867,0.496499,237.655258,0.008183,0.017863,0.977507,0.363875,0.070261,10.007057,-0.001342,-0.016917,0.127268,0.145341,-0.657694,-1.191413,100348.0000
1764077441038814327,2025-11-25 19:00:41.036,1.044929,0.556611,236.947830,0.011176,0.019340,0.978827,0.037286,0.009888,9.745662,0.002389,-0.002075,0.127701,0.135708,-0.658236,-1.192225,100346.0000
1764077441138663308,2025-11-25 19:00:41.136,1.034377,0.544079,236.264153,0.011838,0.022105,0.981426,0.050088,0.387780,9.769789,0.002878,0.005302,0.118618,0.127040,-0.655937,-1.194541,100348.0000
1764077441238434845,2025-11-25 19:00:41.236,1.007788,0.471196,235.602982,0.011674,0.020923,0.982667,0.313213,0.140215,9.930772,-0.003564,0.014392,0.115891,0.117908,-0.655480,-1.193450,100348.0000
1764077441338965252,2025-11-25 19:00:41.336,0.967275,0.365264,234.947701,0.005869,0.018105,0.981349,0.114806,0.208678,9.857421,-0.012106,0.026314,0.116228,0.111662,-0.655956,-1.191906,100349.0000
1764077441440564438,2025-11-25 19:00:41.436,0.917053,0.305760,234.304520,-0.002404,0.018003,0.976679,-0.209595,0.236763,9.657519,-0.005178,0.009838,0.111193,0.102502,-0.655102,-1.194674,100349.0000
1764077441540685660,2025-11-25 19:00:41.536,0.875100,0.337462,233.695961,-0.006669,0.016563,0.975028,-0.203429,0.249542,9.702683,0.001978,-0.013361,0.105188,0.095773,-0.653700,-1.194597,100354.0000
1764077441639971197,2025-11-25 19:00:41.636,0.881888,0.433561,233.136177,0.000213,0.012672,0.977147,0.069901,0.088960,9.801527,0.008807,-0.024013,0.095858,0.086183,-0.649413,-1.193076,100352.0000
1764077441738714697,2025-11-25 19:00:41.736,0.952921,0.517171,232.612465,0.008178,0.011269,0.979852,0.145640,0.147202,9.830540,0.020644,-0.009463,0.087367,0.078973,-0.649426,-1.192007,100346.0000
1764077441838622752,2025-11-25 19:00:41.836,1.062199,0.533099,232.094025,0.011216,0.017705,0.980335,0.142720,0.276503,9.806134,0.018166,0.002162,0.090260,0.069845,-0.648958,-1.190435,100354.0000
1764077441938968771,2025-11-25 19:00:41.936,1.120813,0.511841,231.563461,0.009751,0.026208,0.979179,0.247087,0.103144,9.849216,0.004495,0.008222,0.094577,0.066922,-0.652366,-1.192748,100352.0000
1764077442038660993,2025-11-25 19:00:42.036,1.082326,0.491511,231.035721,0.008186,0.029111,0.977689,0.177556,0.226526,9.826874,-0.016817,0.008591,0.089204,0.058786,-0.649933,-1.188812,100351.0000
1764077442138861233,2025-11-25 19:00:42.136,0.968512,0.490697,230.552811,0.004842,0.022827,0.977064,-0.271303,0.321331,9.637340,-0.027099,0.000188,0.093044,0.050618,-0.646169,-1.189713,100350.0000
1764077442238230400,2025-11-25 19:00:42.236,0.862181,0.496936,230.128784,0.006833,0.015795,0.977867,-0.006253,0.042376,9.697999,-0.015330,-0.004455,0.069227,0.047232,-0.645757,-1.192077,100346.0000
1764077442343854326,2025-11-25 19:00:42.336,0.813843,0.514983,229.748962,0.008656,0.009248,0.979056,0.205232,0.174939,9.879536,0.003584,-0.002699,0.065228,0.040469,-0.644446,-1.196332,100348.0000
1764077442438882307,2025-11-25 19:00:42.436,0.825401,0.541105,229.385406,0.008116,0.010566,0.979242,0.064876,0.197744,9.778354,0.014219,-0.005248,0.065736,0.038102,-0.641997,-1.192963,100350.0000
1764077442538525789,2025-11-25 19:00:42.536,0.888568,0.565228,229.013687,0.008018,0.012233,0.980262,0.016448,0.261620,9.742054,0.014493,-0.001984,0.064037,0.032309,-0.642074,-1.195285,100350.0000
1764077442638572752,2025-11-25 19:00:42.636,0.959495,0.575816,228.627396,0.008591,0.018759,0.979601,0.160734,0.282097,9.799346,0.005072,-0.000158,0.064622,0.027037,-0.642514,-1.192311,100354.0000
1764077442738801344,2025-11-25 19:00:42.736,0.988547,0.575592,228.253845,0.008664,0.022425,0.978635,0.101141,0.257205,9.792206,0.006308,0.002053,0.064357,0.022219,-0.641611,-1.193699,100349.0000
1764077442838521881,2025-11-25 19:00:42.836,0.954043,0.557356,227.910278,0.008490,0.023566,0.976722,0.011165,0.233075,9.732623,-0.005997,0.006247,0.053960,0.018372,-0.642563,-1.192665,100352.0000
1764077442938921603,2025-11-25 19:00:42.936,0.882474,0.524884,227.599609,0.007425,0.019149,0.977408,0.011974,0.099308,9.767812,-0.016800,0.004897,0.050892,0.013102,-0.638755,-1.192163,100349.0000
1764077443038572437,2025-11-25 19:00:43.036,0.822981,0.485822,227.307709,0.005959,0.014758,0.978407,0.076720,0.046068,9.817085,-0.006937,0.005455,0.048092,0.009730,-0.637368,-1.193580,100352.0000
1764077443138754103,2025-11-25 19:00:43.136,0.799905,0.476733,227.016510,0.004286,0.012879,0.979241,0.090146,0.065924,9.832201,0.003512,-0.008076,0.057286,0.006834,-0.634576,-1.196469,100346.0000
1764077443238372362,2025-11-25 19:00:43.236,0.829824,0.501207,226.722610,0.004746,0.012473,0.979778,0.092178,0.107594,9.796865,0.015818,-0.005503,0.057208,0.003473,-0.635516,-1.194961,100356.0000
1764077443339007029,2025-11-25 19:00:43.336,0.884792,0.539786,226.429413,0.006899,0.016025,0.978866,0.093239,0.170173,9.797576,0.006207,-0.004854,0.052768,-0.001322,-0.635964,-1.192476,100349.0000
1764077443441477047,2025-11-25 19:00:43.436,0.910484,0.571964,226.150391,0.008748,0.020527,0.978956,0.073694,0.245507,9.777748,-0.001092,-0.001235,0.049463,-0.007100,-0.634588,-1.193856,100352.0000
1764077443538563270,2025-11-25 19:00:43.536,0.881235,0.588599,225.904022,0.009663,0.022101,0.977896,0.060005,0.277433,9.753575,-0.006879,0.002851,0.038202,-0.009493,-0.633623,-1.192873,100343.0000
1764077443638594788,2025-11-25 19:00:43.636,0.816920,0.584467,225.689758,0.009360,0.018974,0.977747,0.032859,0.202868,9.745187,-0.007710,0.001172,0.033682,-0.009496,-0.634101,-1.192865,100348.0000
1764077443738843084,2025-11-25 19:00:43.736,0.761300,0.575420,225.495453,0.009254,0.013906,0.978035,0.058013,0.170881,9.762814,-0.009346,-0.003192,0.034076,-0.011903,-0.629874,-1.195784,100354.0000
1764077443838651251,2025-11-25 19:00:43.836,0.744575,0.561165,225.300323,0.009661,0.011294,0.979404,0.129520,0.112284,9.826839,0.000182,0.002817,0.031664,-0.014789,-0.630354,-1.195252,100347.0000
1764077443938757899,2025-11-25 19:00:43.936,0.776084,0.538697,225.086594,0.009457,0.012964,0.979977,0.110625,0.116693,9.817824,0.010216,0.003567,0.036084,-0.019591,-0.629410,-1.194715,100351.0000
1764077444039012899,2025-11-25 19:00:44.036,0.810066,0.515307,224.867554,0.007481,0.017171,0.979458,0.027454,0.110015,9.737069,0.001369,0.004564,0.034208,-0.021030,-0.630819,-1.193227,100347.0000
1764077444138241751,2025-11-25 19:00:44.136,0.806788,0.506727,224.669785,0.006732,0.019457,0.978297,0.095672,0.101589,9.806419,-0.003775,-0.000757,0.033473,-0.022478,-0.629423,-1.194672,100348.0000
1764077444238338825,2025-11-25 19:00:44.236,0.787927,0.502769,224.513504,0.013467,0.013389,0.978658,0.103728,0.105778,9.801215,0.003199,0.003882,0.026879,-0.026800,-0.628477,-1.194141,100346.0000
1764077444338675677,2025-11-25 19:00:44.336,0.791182,0.469574,224.384140,0.013566,0.012422,0.978664,0.078873,0.146194,9.795301,0.009748,0.007127,0.025113,-0.028260,-0.629469,-1.195549,100350.0000
1764077444439020936,2025-11-25 19:00:44.436,0.819941,0.425843,224.253220,0.012409,0.014598,0.979171,0.113609,0.137549,9.793696,0.009209,0.006462,0.027662,-0.026794,-0.625631,-1.195147,100348.0000
1764077444540885010,2025-11-25 19:00:44.536,0.862938,0.379230,224.126907,0.009601,0.017613,0.978770,0.072536,0.252364,9.797415,0.008161,0.005873,0.022131,-0.030634,-0.627041,-1.193143,100347.0000
1764077444640631269,2025-11-25 19:00:44.636,0.891928,0.347315,224.013702,0.007072,0.019965,0.978390,0.043410,0.267012,9.756647,0.003442,0.003921,0.019836,-0.031114,-0.627510,-1.192647,100348.0000
1764077444738533065,2025-11-25 19:00:44.736,0.889413,0.355446,223.928619,0.004569,0.020897,0.977266,0.061280,0.246803,9.778628,-0.000039,-0.006485,0.013065,-0.033509,-0.626078,-1.192152,100349.0000
1764077444838576843,2025-11-25 19:00:44.836,0.847488,0.397171,223.865875,0.005413,0.019564,0.977496,0.046841,0.261808,9.766971,-0.003555,-0.008314,0.011154,-0.032075,-0.625624,-1.193625,100351.0000
1764077444938917954,2025-11-25 19:00:44.936,0.788529,0.452058,223.819305,0.007626,0.016530,0.978824,0.076346,0.152621,9.799197,-0.011471,-0.011156,0.007562,-0.032573,-0.625200,-1.196033,100345.0000
1764077445038492195,2025-11-25 19:00:45.036,0.740441,0.494500,223.781540,0.010834,0.012986,0.979992,0.147773,0.091572,9.825293,-0.007745,-0.000830,0.002573,-0.034489,-0.626601,-1.194056,100344.0000
1764077445138554361,2025-11-25 19:00:45.136,0.735174,0.502169,223.749130,0.012641,0.011450,0.980743,0.134103,0.078854,9.807402,0.000680,0.000857,0.005224,-0.035437,-0.626097,-1.192605,100348.0000
1764077445238861158,2025-11-25 19:00:45.236,0.770786,0.469789,223.717621,0.011310,0.012113,0.979772,0.092332,0.099613,9.805299,0.014780,0.006016,0.006551,-0.035920,-0.624219,-1.194072,100350.0000
1764077445339203176,2025-11-25 19:00:45.336,0.821411,0.425601,223.686981,0.008784,0.016829,0.978505,0.059332,0.285041,9.759009,0.012694,0.007324,0.006638,-0.034964,-0.624702,-1.194560,100348.0000
1764077445438414102,2025-11-25 19:00:45.436,0.864000,0.385237,223.657654,0.004683,0.018598,0.977066,-0.061277,0.098261,9.676748,0.000935,0.003823,0.007056,-0.036898,-0.624264,-1.195983,100346.0000
1764077445539019491,2025-11-25 19:00:45.536,0.878485,0.369612,223.643173,0.004968,0.019687,0.978128,0.092638,0.221713,9.806074,-0.001017,0.002236,0.005353,-0.035919,-0.624686,-1.193583,100354.0000
1764077445641071472,2025-11-25 19:00:45.636,0.854581,0.380338,223.648132,0.006114,0.019055,0.978798,0.174184,0.276849,9.807466,-0.007269,-0.001289,-0.001478,-0.036903,-0.627577,-1.194488,100350.0000
1764077445739083176,2025-11-25 19:00:45.736,0.837072,0.392879,223.675171,0.009165,0.014555,0.978828,0.038023,0.262475,9.734232,-0.000112,-0.000830,-0.006432,-0.035438,-0.624684,-1.193590,100350.0000
1764077445839518657,2025-11-25 19:00:45.836,0.832645,0.407483,223.724823,0.007708,0.014105,0.978541,0.043879,0.194504,9.779538,0.000885,-0.003413,-0.011770,-0.035458,-0.623322,-1.196982,100350.0000
1764077445938829379,2025-11-25 19:00:45.936,0.847440,0.411781,223.783997,0.009516,0.015061,0.978343,0.126406,0.162857,9.794308,-0.004433,0.001103,-0.016066,-0.034487,-0.624710,-1.195049,100348.0000
1764077446038284602,2025-11-25 19:00:46.036,0.868576,0.401746,223.849854,0.009774,0.017864,0.977329,0.109303,0.167288,9.804210,0.004640,0.002152,-0.013798,-0.032089,-0.626133,-1.195062,100355.0000
1764077446138419472,2025-11-25 19:00:46.136,0.876998,0.374982,223.921722,0.008632,0.019093,0.978345,0.070002,0.157454,9.796943,-0.000925,0.007346,-0.015764,-0.031605,-0.628011,-1.193596,100344.0000
1764077446238376009,2025-11-25 19:00:46.236,0.859744,0.353610,224.011826,0.006291,0.018940,0.978831,0.104626,0.063121,9.786027,-0.001641,0.002821,-0.014170,-0.031603,-0.627533,-1.193603,100354.0000
1764077446338887175,2025-11-25 19:00:46.336,0.833737,0.349545,224.122269,0.006442,0.015108,0.980120,0.119196,0.044560,9.818429,0.004576,-0.003353,-0.020740,-0.029690,-0.627555,-1.195076,100348.0000
1764077446439090361,2025-11-25 19:00:46.436,0.821373,0.368135,224.248398,0.005358,0.013084,0.979283,0.053189,0.091199,9.785632,-0.003025,-0.000695,-0.019388,-0.028740,-0.628526,-1.196038,100349.0000
1764077446538815638,2025-11-25 19:00:46.536,0.831717,0.402444,224.373764,0.006262,0.012855,0.978246,0.047902,0.152320,9.764920,0.000599,-0.007165,-0.017682,-0.027768,-0.626611,-1.196082,100347.0000
1764077446638467286,2025-11-25 19:00:46.636,0.865044,0.441103,224.491531,0.008798,0.014212,0.977922,0.061587,0.210670,9.756145,0.015155,-0.010088,-0.019954,-0.027300,-0.629943,-1.195556,100350.0000
1764077446738731786,2025-11-25 19:00:46.736,0.908842,0.463885,224.597351,0.010655,0.016495,0.978176,0.089773,0.276220,9.763094,0.009475,-0.000443,-0.015175,-0.025842,-0.628483,-1.194637,100350.0000
1764077446838493453,2025-11-25 19:00:46.836,0.932955,0.461895,224.696198,0.010244,0.019501,0.979108,0.097385,0.271673,9.767216,-0.000284,0.001670,-0.017310,-0.024873,-0.630348,-1.192696,100343.0000
1764077446938740786,2025-11-25 19:00:46.936,0.922894,0.438437,224.808029,0.009934,0.019852,0.979263,0.077379,0.282813,9.790293,-0.005545,0.001537,-0.022904,-0.023440,-0.630840,-1.193673,100342.0000
1764077447038714397,2025-11-25 19:00:47.036,0.884015,0.411621,224.933243,0.007478,0.018875,0.978830,0.080656,0.154218,9.781527,-0.006217,0.001521,-0.024347,-0.021037,-0.631307,-1.193701,100350.0000
1764077447138792082,2025-11-25 19:00:47.136,0.827133,0.402735,225.068542,0.006186,0.016849,0.978400,0.075175,0.076560,9.791817,-0.006276,-0.001645,-0.023015,-0.021035,-0.629416,-1.194693,100348.0000
1764077447238248360,2025-11-25 19:00:47.236,0.776617,0.412165,225.202545,0.005385,0.014208,0.977688,0.058440,0.061277,9.780821,-0.007426,-0.002229,-0.022475,-0.018155,-0.628479,-1.196195,100347.0000
1764077447339272490,2025-11-25 19:00:47.336,0.758496,0.436356,225.329712,0.006665,0.012592,0.977886,0.103610,0.069777,9.798518,-0.001857,-0.002106,-0.019760,-0.017673,-0.632247,-1.193736,100341.0000
1764077447438864823,2025-11-25 19:00:47.436,0.766047,0.460613,225.446259,0.007766,0.012745,0.978250,0.075137,0.118463,9.779197,0.008754,-0.006274,-0.013744,-0.016712,-0.630830,-1.194735,100360.0000
1764077447538844767,2025-11-25 19:00:47.536,0.788147,0.483437,225.555161,0.007752,0.014990,0.978538,0.082809,0.165212,9.774653,0.013587,-0.005560,-0.016431,-0.012392,-0.632254,-1.195259,100355.0000
1764077447638760082,2025-11-25 19:00:47.636,0.805613,0.501153,225.671951,0.006969,0.017164,0.979057,0.065891,0.234769,9.775870,0.002041,-0.002395,-0.019093,-0.013821,-0.630807,-1.194296,100360.0000
1764077447738756156,2025-11-25 19:00:47.736,0.803400,0.523154,225.808563,0.005979,0.017978,0.979645,0.066829,0.250759,9.787514,-0.001748,-0.002419,-0.023663,-0.009977,-0.632690,-1.193843,100346.0000
1764077447838816249,2025-11-25 19:00:47.836,0.788547,0.544989,225.958267,0.006237,0.015688,0.979791,0.063160,0.172237,9.780278,-0.000563,-0.005386,-0.026246,-0.010953,-0.632258,-1.195761,100348.0000
1764077447939023341,2025-11-25 19:00:47.936,0.791026,0.544923,226.110352,0.010607,0.012354,0.979724,0.107625,0.211588,9.788013,0.006095,0.000374,-0.025706,-0.009020,-0.633641,-1.193842,100352.0000
1764077448040424119,2025-11-25 19:00:48.036,0.819877,0.518595,226.258209,0.009674,0.013352,0.978859,0.103459,0.119455,9.803709,0.008311,0.003213,-0.024352,-0.006141,-0.634594,-1.194352,100346.0000
1764077448138912156,2025-11-25 19:00:48.136,0.854113,0.474333,226.395905,0.007881,0.016453,0.978226,0.087601,0.130556,9.788854,0.005548,0.011028,-0.027105,-0.001319,-0.633129,-1.193964,100345.0000
1764077448238408119,2025-11-25 19:00:48.236,0.864492,0.436300,226.539612,0.006059,0.019005,0.977684,0.084086,0.133019,9.810196,-0.001600,0.003823,-0.027391,-0.002770,-0.635514,-1.193424,100351.0000
1764077448338780452,2025-11-25 19:00:48.336,0.846199,0.419021,226.692673,0.004546,0.019090,0.977828,0.041329,0.108331,9.799068,-0.000997,0.003767,-0.023802,0.001070,-0.635049,-1.194932,100352.0000
1764077448438540359,2025-11-25 19:00:48.436,0.804608,0.429280,226.855225,0.004256,0.017554,0.978089,0.035306,0.127063,9.797049,-0.006302,-0.005204,-0.027013,0.003466,-0.638362,-1.193954,100354.0000
1764077448538809285,2025-11-25 19:00:48.536,0.764202,0.457592,227.016495,0.006263,0.014258,0.978477,0.074146,0.131540,9.773851,-0.006960,-0.007128,-0.023293,0.004911,-0.635052,-1.195952,100347.0000
1764077448638772211,2025-11-25 19:00:48.636,0.751615,0.485757,227.179550,0.009006,0.011887,0.979118,0.094917,0.197343,9.773378,0.003342,-0.002609,-0.026681,0.004438,-0.636447,-1.193998,100350.0000
1764077448741286100,2025-11-25 19:00:48.736,0.775430,0.485422,227.334259,0.010294,0.012353,0.979589,0.082417,0.213338,9.773748,0.006554,0.000508,-0.027069,0.006822,-0.636964,-1.196432,100350.0000
1764077448838975526,2025-11-25 19:00:48.836,0.815925,0.462022,227.487579,0.009836,0.013952,0.979762,0.076885,0.248407,9.789325,0.011349,0.002351,-0.025902,0.011640,-0.636455,-1.196029,100349.0000
