Timestamp,Time,Roll,Pitch,Yaw,Magnetic_Field_X,Magnetic_Field_Y,Magnetic_Field_Z,Angular_Rate_X,Angular_Rate_Y,Angular_Rate_Z,Acceleration_X,Acceleration_Y,Acceleration_Z
1779273689800896185,2026-05-20 16:11:29.796,-2.078000,2.104000,165.377000,0.076800,-0.316300,0.144200,-0.002284,0.081588,0.005670,0.626000,0.438000,-10.057000
1779273689839663111,2026-05-20 16:11:29.836,-2.082000,2.232000,165.388000,0.074800,-0.320200,0.139800,-0.003654,0.092150,0.012909,0.728000,0.329000,-10.095000
1779273689874265370,2026-05-20 16:11:29.871,-2.085000,2.377000,165.406000,0.074900,-0.319200,0.143100,-0.003464,0.105285,0.018718,0.727000,0.365000,-10.069000
1779273689889075351,2026-05-20 16:11:29.887,-2.086000,2.540000,165.431000,0.072100,-0.320100,0.138600,0.000208,0.117024,0.016718,0.910000,0.444000,-10.046000
1779273689897604074,2026-05-20 16:11:29.896,-2.086000,2.721000,165.461000,0.074000,-0.317200,0.140800,-0.000344,0.129194,0.025514,1.140000,0.482000,-9.987000
1779273689905195370,2026-05-20 16:11:29.903,-2.090000,2.923000,165.502000,0.071300,-0.312300,0.140700,-0.005703,0.143483,0.037046,1.069000,0.386000,-10.126000
1779273689922093925,2026-05-20 16:11:29.918,-2.094000,3.143000,165.545000,0.070300,-0.314200,0.140600,-0.004741,0.155212,0.036047,0.979000,0.398000,-10.164000
1779273689934081814,2026-05-20 16:11:29.928,-2.093000,3.369000,165.594000,0.071300,-0.312200,0.142800,-0.000705,0.157436,0.036426,1.275000,0.454000,-10.083000
1779273689941943851,2026-05-20 16:11:29.938,-2.092000,3.594000,165.650000,0.068500,-0.313200,0.145900,-0.002073,0.153269,0.043915,1.377000,0.376000,-10.028000
1779273689950144092,2026-05-20 16:11:29.948,-2.092000,3.823000,165.709000,0.067600,-0.311200,0.143700,-0.004875,0.157082,0.045082,1.370000,0.510000,-10.147000
1779273689956948277,2026-05-20 16:11:29.955,-2.088000,4.052000,165.770000,0.066700,-0.313100,0.141500,-0.003756,0.159612,0.049411,1.600000,0.447000,-10.165000
1779273689965014611,2026-05-20 16:11:29.963,-2.085000,4.268000,165.840000,0.062900,-0.316000,0.142400,-0.001702,0.144499,0.056614,1.422000,0.588000,-10.128000
1779273689972335777,2026-05-20 16:11:29.971,-2.080000,4.466000,165.919000,0.064000,-0.309100,0.157500,0.002453,0.127815,0.056739,1.603000,0.445000,-10.141000
1779273689980269444,2026-05-20 16:11:29.979,-2.073000,4.645000,166.010000,0.062000,-0.316000,0.143400,0.002229,0.118892,0.065629,1.612000,0.494000,-10.262000
1779273689989254240,2026-05-20 16:11:29.986,-2.068000,4.805000,166.112000,0.060100,-0.314000,0.137900,-0.002071,0.106473,0.076620,1.782000,0.223000,-10.083000
1779273690004398888,2026-05-20 16:11:30.001,-2.062000,4.940000,166.232000,0.058300,-0.313900,0.146500,-0.002689,0.082874,0.087021,1.542000,0.218000,-10.182000
1779273690027013185,2026-05-20 16:11:30.025,-2.057000,5.049000,166.368000,0.058200,-0.317900,0.142200,-0.001113,0.064140,0.097574,2.281000,0.308000,-10.107000
1779273690048412166,2026-05-20 16:11:30.046,-2.048000,5.129000,166.520000,0.057400,-0.313900,0.144300,-0.004790,0.047663,0.109255,1.656000,-0.067000,-10.072000
1779273690079858296,2026-05-20 16:11:30.076,-2.043000,5.178000,166.692000,0.053600,-0.317800,0.143000,-0.010543,0.024103,0.123357,1.516000,0.456000,-10.087000
1779273690107154240,2026-05-20 16:11:30.104,-2.038000,5.204000,166.884000,0.053600,-0.316800,0.145200,-0.007373,0.004622,0.133329,2.483000,0.212000,-9.977000
1779273690119460944,2026-05-20 16:11:30.118,-2.036000,5.208000,167.091000,0.050800,-0.318700,0.144000,-0.008695,-0.009053,0.144562,2.005000,0.332000,-9.979000
1779273690127174814,2026-05-20 16:11:30.125,-2.032000,5.184000,167.315000,0.054600,-0.313900,0.144100,-0.012761,-0.026426,0.154457,1.337000,0.379000,-10.160000
1779273690140997703,2026-05-20 16:11:30.139,-2.033000,5.134000,167.553000,0.050800,-0.316800,0.141800,-0.013001,-0.047471,0.160418,1.500000,0.669000,-10.071000
1779273690204479925,2026-05-20 16:11:30.203,-2.033000,5.000000,168.068000,0.049900,-0.315800,0.134200,-0.014614,-0.060054,0.177492,2.391000,0.550000,-9.955000
1779273690216088944,2026-05-20 16:11:30.215,-2.037000,4.915000,168.345000,0.048900,-0.317700,0.139600,-0.016501,-0.064709,0.187593,1.404000,0.519000,-9.974000
1779273690241055055,2026-05-20 16:11:30.239,-2.042000,4.820000,168.628000,0.048900,-0.319700,0.139600,-0.017155,-0.074444,0.191588,0.877000,0.459000,-10.174000
1779273690267514647,2026-05-20 16:11:30.266,-2.047000,4.722000,168.920000,0.045300,-0.313700,0.140400,-0.021715,-0.078698,0.195759,1.341000,0.607000,-10.123000
1779273690291315092,2026-05-20 16:11:30.290,-2.056000,4.622000,169.220000,0.044300,-0.316600,0.143600,-0.023043,-0.076827,0.204993,2.083000,0.739000,-9.939000
1779273690317818221,2026-05-20 16:11:30.316,-2.065000,4.522000,169.530000,0.046200,-0.317700,0.137200,-0.022197,-0.074803,0.211827,2.218000,0.656000,-9.932000
1779273690397304370,2026-05-20 16:11:30.372,-2.076000,4.425000,169.845000,0.043400,-0.317600,0.142500,-0.021114,-0.072085,0.215320,1.478000,0.560000,-10.027000
1779273690429614370,2026-05-20 16:11:30.412,-2.087000,4.337000,170.167000,0.039700,-0.317500,0.143400,-0.023245,-0.062595,0.221268,0.919000,0.557000,-10.165000
1779273690441975370,2026-05-20 16:11:30.435,-2.101000,4.263000,170.498000,0.039700,-0.316600,0.139100,-0.024612,-0.053772,0.227833,0.931000,0.561000,-10.082000
1779273690477945481,2026-05-20 16:11:30.471,-2.115000,4.207000,170.837000,0.037800,-0.318500,0.140100,-0.026658,-0.044129,0.232515,1.304000,0.493000,-10.055000
1779273690488248240,2026-05-20 16:11:30.487,-2.130000,4.169000,171.180000,0.035000,-0.319400,0.136700,-0.027174,-0.032083,0.238564,1.516000,0.402000,-9.971000
1779273690511127555,2026-05-20 16:11:30.505,-2.145000,4.146000,171.530000,0.033200,-0.318400,0.135500,-0.028160,-0.020802,0.244867,1.465000,0.358000,-9.959000
1779273690552257555,2026-05-20 16:11:30.550,-2.160000,4.137000,171.888000,0.032200,-0.321300,0.139800,-0.027842,-0.013771,0.249826,1.356000,0.415000,-9.980000
1779273690561752740,2026-05-20 16:11:30.560,-2.175000,4.145000,172.253000,0.029300,-0.324200,0.133200,-0.030653,0.001321,0.254501,1.343000,0.357000,-9.956000
1779273690569239555,2026-05-20 16:11:30.568,-2.189000,4.176000,172.624000,0.025800,-0.314300,0.139400,-0.028640,0.017410,0.260934,1.348000,0.424000,-9.920000
1779273690576380462,2026-05-20 16:11:30.575,-2.204000,4.225000,172.998000,0.025700,-0.320200,0.138400,-0.030310,0.026755,0.262938,1.397000,0.449000,-9.983000
1779273690592821962,2026-05-20 16:11:30.591,-2.216000,4.290000,173.377000,0.022900,-0.321200,0.133900,-0.026950,0.036777,0.265395,1.379000,0.704000,-10.066000
1779273690616488221,2026-05-20 16:11:30.615,-2.225000,4.364000,173.757000,0.017300,-0.321000,0.139000,-0.029405,0.044950,0.263517,1.347000,0.728000,-10.073000
1779273690640955832,2026-05-20 16:11:30.639,-2.234000,4.450000,174.142000,0.016400,-0.323000,0.137900,-0.025801,0.050938,0.267461,1.373000,0.865000,-10.097000
1779273690665879536,2026-05-20 16:11:30.664,-2.240000,4.548000,174.530000,0.015400,-0.323000,0.139000,-0.028339,0.058547,0.269460,1.338000,0.840000,-10.231000
1779273690691029388,2026-05-20 16:11:30.689,-2.243000,4.655000,174.921000,0.009800,-0.323800,0.139800,-0.023737,0.064360,0.269165,1.333000,0.922000,-10.244000
1779273690715979480,2026-05-20 16:11:30.714,-2.246000,4.766000,175.313000,0.008800,-0.328700,0.134300,-0.026295,0.066925,0.273170,1.361000,0.535000,-10.113000
1779273690740832499,2026-05-20 16:11:30.739,-2.245000,4.870000,175.709000,0.006100,-0.325700,0.140700,-0.017885,0.057512,0.274329,1.472000,0.419000,-10.075000
1779273690765738629,2026-05-20 16:11:30.764,-2.242000,4.955000,176.104000,0.003300,-0.327600,0.137300,-0.017841,0.043377,0.272091,1.383000,0.641000,-10.070000
1779273690791064295,2026-05-20 16:11:30.789,-2.231000,5.016000,176.498000,0.001400,-0.326600,0.138300,-0.010978,0.025039,0.267522,1.404000,0.639000,-10.083000
1779273690815854647,2026-05-20 16:11:30.814,-2.221000,5.053000,176.894000,-0.001300,-0.325600,0.139200,-0.013899,0.011658,0.267147,1.417000,0.766000,-10.137000
1779273690840791814,2026-05-20 16:11:30.839,-2.207000,5.070000,177.289000,-0.002200,-0.322600,0.140200,-0.012110,-0.002395,0.268390,1.447000,0.783000,-10.087000
1779273690865990443,2026-05-20 16:11:30.864,-2.195000,5.064000,177.679000,-0.003100,-0.323600,0.136900,-0.011342,-0.021395,0.265499,1.361000,0.876000,-10.095000
1779273690891192814,2026-05-20 16:11:30.889,-2.178000,5.030000,178.070000,-0.007800,-0.325500,0.136700,-0.010350,-0.042397,0.266228,1.330000,0.762000,-10.120000
1779273690916302054,2026-05-20 16:11:30.915,-2.160000,4.965000,178.461000,-0.007700,-0.319600,0.138800,-0.009330,-0.063866,0.265677,1.281000,0.901000,-10.082000
1779273690940811832,2026-05-20 16:11:30.939,-2.139000,4.872000,178.849000,-0.010500,-0.321500,0.135400,-0.008835,-0.081571,0.261865,1.209000,0.712000,-10.052000
1779273690965841351,2026-05-20 16:11:30.964,-2.122000,4.756000,179.233000,-0.008700,-0.325400,0.137700,-0.008745,-0.095018,0.257760,1.088000,0.773000,-10.016000
1779273690990900406,2026-05-20 16:11:30.989,-2.104000,4.624000,179.612000,-0.013400,-0.326300,0.135300,-0.009794,-0.105086,0.255973,1.010000,0.642000,-9.982000
1779273691015793462,2026-05-20 16:11:31.014,-2.090000,4.477000,179.989000,-0.014200,-0.322400,0.137400,-0.008388,-0.116646,0.254136,0.918000,0.616000,-10.092000
1779273691040809795,2026-05-20 16:11:31.039,-2.076000,4.307000,180.362000,-0.015200,-0.323400,0.136300,-0.009277,-0.133370,0.249450,0.884000,0.515000,-10.194000
1779273691065730277,2026-05-20 16:11:31.064,-2.061000,4.113000,180.726000,-0.016100,-0.322400,0.135200,-0.008258,-0.150657,0.240155,0.835000,0.570000,-10.166000
1779273691091033091,2026-05-20 16:11:31.089,-2.052000,3.901000,181.087000,-0.018800,-0.318400,0.133900,-0.011768,-0.160804,0.240832,0.728000,0.707000,-10.084000
1779273691115798351,2026-05-20 16:11:31.114,-2.043000,3.683000,181.441000,-0.021600,-0.322300,0.136000,-0.009700,-0.159770,0.234486,0.930000,0.683000,-10.145000
1779273691140819517,2026-05-20 16:11:31.139,-2.038000,3.467000,181.792000,-0.020800,-0.324200,0.137100,-0.011543,-0.153847,0.233784,0.912000,0.622000,-10.157000
1779273691204137202,2026-05-20 16:11:31.203,-2.044000,3.067000,182.466000,-0.021700,-0.324200,0.136000,-0.017189,-0.140887,0.225656,-0.222000,0.574000,-10.369000
1779273691215857573,2026-05-20 16:11:31.214,-2.051000,2.871000,182.793000,-0.023500,-0.320300,0.138000,-0.017346,-0.149505,0.214507,0.262000,0.623000,-10.264000
1779273691240737054,2026-05-20 16:11:31.239,-2.056000,2.676000,183.110000,-0.028200,-0.325100,0.135600,-0.013334,-0.142872,0.210028,0.920000,0.599000,-10.103000
1779273691265740925,2026-05-20 16:11:31.264,-2.063000,2.492000,183.420000,-0.028100,-0.322200,0.135600,-0.016527,-0.128930,0.209148,-0.042000,0.522000,-10.059000
1779273691291467962,2026-05-20 16:11:31.289,-2.072000,2.326000,183.723000,-0.027300,-0.327100,0.135700,-0.014558,-0.117025,0.200613,-0.206000,0.731000,-10.321000
1779273691316058054,2026-05-20 16:11:31.314,-2.083000,2.181000,184.015000,-0.028200,-0.323200,0.129100,-0.013189,-0.103884,0.193657,0.104000,0.542000,-10.140000
1779273691340681906,2026-05-20 16:11:31.339,-2.095000,2.045000,184.302000,-0.029000,-0.321200,0.133400,-0.017656,-0.101890,0.197598,-0.140000,0.526000,-10.271000
1779273691365625795,2026-05-20 16:11:31.364,-2.110000,1.906000,184.587000,-0.031900,-0.324100,0.133300,-0.014661,-0.108049,0.193674,0.242000,0.623000,-10.141000
1779273691390925962,2026-05-20 16:11:31.389,-2.122000,1.755000,184.873000,-0.030800,-0.317200,0.151700,-0.011489,-0.113911,0.187658,-0.135000,0.625000,-10.322000
1779273691415818628,2026-05-20 16:11:31.414,-2.133000,1.602000,185.149000,-0.031800,-0.321100,0.135400,-0.012484,-0.111197,0.184115,-0.271000,0.528000,-10.188000
1779273691440692702,2026-05-20 16:11:31.439,-2.143000,1.464000,185.420000,-0.032800,-0.322100,0.136500,-0.012287,-0.101030,0.183550,-0.096000,0.535000,-10.146000
1779273691465718795,2026-05-20 16:11:31.464,-2.161000,1.344000,185.686000,-0.033600,-0.320100,0.133200,-0.014729,-0.083825,0.177484,-0.169000,0.694000,-10.096000
1779273691491369369,2026-05-20 16:11:31.489,-2.178000,1.235000,185.941000,-0.035600,-0.321500,0.132900,-0.015363,-0.081903,0.172443,-0.252000,0.404000,-10.284000
1779273691515705017,2026-05-20 16:11:31.514,-2.195000,1.126000,186.187000,-0.035600,-0.321500,0.136200,-0.013769,-0.087301,0.163076,-0.130000,0.568000,-10.304000
1779273691540738110,2026-05-20 16:11:31.539,-2.208000,1.010000,186.428000,-0.039300,-0.322400,0.131700,-0.012929,-0.086935,0.163462,-0.164000,0.581000,-10.183000
1779273691567334480,2026-05-20 16:11:31.566,-2.220000,0.893000,186.660000,-0.037400,-0.319500,0.133900,-0.010960,-0.084291,0.156581,-0.415000,0.411000,-10.152000
1779273691591251536,2026-05-20 16:11:31.589,-2.233000,0.784000,186.886000,-0.038400,-0.323400,0.135000,-0.012568,-0.085564,0.152049,-0.164000,0.464000,-10.352000
1779273691615686721,2026-05-20 16:11:31.614,-2.245000,0.667000,187.109000,-0.038300,-0.320500,0.132800,-0.008784,-0.089475,0.153985,-0.316000,0.404000,-10.273000
1779273691641406980,2026-05-20 16:11:31.640,-2.255000,0.534000,187.329000,-0.041100,-0.322400,0.135900,-0.008859,-0.101690,0.146788,-0.177000,0.511000,-10.118000
1779273691665769369,2026-05-20 16:11:31.664,-2.259000,0.393000,187.547000,-0.042100,-0.324300,0.130500,-0.003005,-0.103898,0.143135,-0.510000,0.820000,-10.305000
1779273691690804943,2026-05-20 16:11:31.689,-2.262000,0.248000,187.763000,-0.042100,-0.322400,0.132600,-0.004251,-0.108749,0.147123,-0.587000,0.395000,-9.988000
1779273691715955721,2026-05-20 16:11:31.714,-2.267000,0.092000,187.983000,-0.043800,-0.314500,0.134600,-0.002217,-0.118244,0.155380,-0.754000,0.250000,-10.323000
1779273691740712276,2026-05-20 16:11:31.739,-2.273000,-0.084000,188.205000,-0.043000,-0.321400,0.135800,-0.008058,-0.133727,0.149879,-0.773000,0.934000,-10.145000
1779273691765619535,2026-05-20 16:11:31.764,-2.273000,-0.277000,188.435000,-0.043000,-0.320400,0.138000,0.002997,-0.144832,0.157050,-0.453000,0.684000,-9.862000
1779273691790764202,2026-05-20 16:11:31.789,-2.273000,-0.481000,188.682000,-0.044000,-0.323300,0.136900,0.006016,-0.151082,0.177093,-0.839000,0.390000,-10.061000
1779273691815595443,2026-05-20 16:11:31.814,-2.276000,-0.686000,188.938000,-0.043800,-0.318400,0.136800,0.001185,-0.147616,0.176494,-0.869000,0.813000,-10.291000
1779273691840690313,2026-05-20 16:11:31.839,-2.272000,-0.883000,189.199000,-0.045900,-0.325200,0.131400,0.007607,-0.138823,0.176217,-1.112000,0.919000,-9.965000
1779273691865685684,2026-05-20 16:11:31.864,-2.260000,-1.059000,189.462000,-0.046700,-0.322300,0.136700,0.014448,-0.123365,0.179450,-0.930000,0.668000,-10.217000
1779273691890685017,2026-05-20 16:11:31.889,-2.247000,-1.195000,189.725000,-0.045800,-0.324200,0.137800,0.015613,-0.089572,0.178851,-1.234000,0.566000,-10.114000
1779273691915616239,2026-05-20 16:11:31.914,-2.229000,-1.281000,189.977000,-0.048600,-0.324200,0.136600,0.015447,-0.052036,0.176276,-0.858000,0.631000,-9.960000
1779273691940693721,2026-05-20 16:11:31.939,-2.206000,-1.322000,190.217000,-0.049500,-0.323200,0.136600,0.022608,-0.021532,0.167221,-0.787000,0.717000,-10.112000
1779273691965603258,2026-05-20 16:11:31.964,-2.183000,-1.323000,190.457000,-0.051300,-0.321200,0.135400,0.017144,0.003951,0.171247,-0.923000,0.422000,-10.104000
1779273691990702628,2026-05-20 16:11:31.989,-2.155000,-1.280000,190.691000,-0.050400,-0.319200,0.137600,0.025765,0.036728,0.161550,-0.761000,0.416000,-10.022000
1779273692015626035,2026-05-20 16:11:32.014,-2.129000,-1.187000,190.916000,-0.052200,-0.317300,0.133100,0.020399,0.072610,0.159728,-0.823000,0.643000,-9.953000
1779273692040768165,2026-05-20 16:11:32.039,-2.108000,-1.056000,191.131000,-0.055000,-0.320100,0.136300,0.015247,0.095257,0.154485,-0.620000,0.482000,-10.221000
1779273692065600480,2026-05-20 16:11:32.064,-2.096000,-0.899000,191.346000,-0.055900,-0.319100,0.138400,0.010100,0.114089,0.155919,-0.639000,0.364000,-10.059000
1779273692090749165,2026-05-20 16:11:32.089,-2.080000,-0.710000,191.556000,-0.057800,-0.318100,0.135000,0.014602,0.134658,0.149343,-0.633000,0.435000,-9.946000
1779273692115542183,2026-05-20 16:11:32.114,-2.063000,-0.487000,191.759000,-0.062400,-0.317100,0.130400,0.013908,0.156055,0.149107,-0.415000,0.496000,-10.173000
1779273692140631906,2026-05-20 16:11:32.139,-2.052000,-0.246000,191.959000,-0.062300,-0.312200,0.135800,0.005619,0.169056,0.146364,-0.284000,0.356000,-10.064000
1779273692203956609,2026-05-20 16:11:32.202,-2.043000,0.262000,192.355000,-0.067000,-0.315000,0.135600,0.002232,0.177094,0.142317,-0.103000,0.369000,-10.138000
1779273692215653239,2026-05-20 16:11:32.214,-2.039000,0.525000,192.547000,-0.070800,-0.317900,0.133300,0.002471,0.179529,0.142086,-0.175000,0.310000,-9.962000
1779273692240657054,2026-05-20 16:11:32.239,-2.041000,0.783000,192.738000,-0.071600,-0.314000,0.135400,-0.007064,0.172561,0.135813,0.088000,0.407000,-10.164000
1779273692265518943,2026-05-20 16:11:32.264,-2.045000,1.032000,192.925000,-0.071600,-0.314000,0.135400,-0.005137,0.167190,0.133677,-0.113000,0.528000,-9.997000
1779273692290681035,2026-05-20 16:11:32.289,-2.050000,1.270000,193.103000,-0.075400,-0.316800,0.135200,-0.006290,0.156909,0.128430,0.208000,0.310000,-10.043000
1779273692315558091,2026-05-20 16:11:32.314,-2.056000,1.494000,193.284000,-0.078000,-0.310900,0.133900,-0.004455,0.149785,0.127556,0.210000,0.333000,-10.171000
1779273692340474961,2026-05-20 16:11:32.339,-2.065000,1.698000,193.457000,-0.080000,-0.315800,0.134900,-0.013410,0.131265,0.124773,0.243000,0.364000,-10.070000
1779273692365535720,2026-05-20 16:11:32.364,-2.075000,1.874000,193.622000,-0.081800,-0.314800,0.133800,-0.010809,0.110273,0.116385,0.416000,0.473000,-10.185000
1779273692392019720,2026-05-20 16:11:32.390,-2.088000,2.023000,193.788000,-0.083700,-0.315700,0.131500,-0.012611,0.093004,0.115600,0.255000,0.542000,-10.079000
1779273692415526868,2026-05-20 16:11:32.414,-2.095000,2.148000,193.947000,-0.082800,-0.316700,0.131600,-0.007241,0.076313,0.111820,0.318000,0.310000,-10.169000
1779273692441478516,2026-05-20 16:11:32.440,-2.099000,2.248000,194.105000,-0.085500,-0.313700,0.133600,-0.002821,0.056298,0.105638,0.434000,0.542000,-10.202000
1779273692466472924,2026-05-20 16:11:32.465,-2.102000,2.314000,194.257000,-0.084600,-0.315700,0.129300,-0.007617,0.034061,0.104642,0.417000,0.373000,-10.185000
1779273692490633646,2026-05-20 16:11:32.489,-2.105000,2.352000,194.408000,-0.088100,-0.306800,0.128000,-0.004156,0.016589,0.099309,0.258000,0.448000,-10.235000
1779273692515511165,2026-05-20 16:11:32.514,-2.103000,2.371000,194.549000,-0.088300,-0.312700,0.130200,-0.002997,0.005705,0.097638,0.374000,0.443000,-10.181000
1779273692540736387,2026-05-20 16:11:32.539,-2.096000,2.371000,194.684000,-0.091100,-0.313600,0.128900,0.002065,-0.011390,0.086763,0.429000,0.578000,-10.180000
1779273692565474442,2026-05-20 16:11:32.564,-2.089000,2.345000,194.817000,-0.090200,-0.313600,0.125700,0.002003,-0.029448,0.086837,0.310000,0.534000,-10.363000
1779273692591585276,2026-05-20 16:11:32.590,-2.080000,2.294000,194.942000,-0.091100,-0.313600,0.131100,0.002968,-0.042989,0.082562,0.232000,0.429000,-10.198000
1779273692615453072,2026-05-20 16:11:32.614,-2.070000,2.233000,195.064000,-0.091900,-0.309700,0.132100,0.005201,-0.046425,0.074051,0.313000,0.562000,-10.160000
1779273692640413627,2026-05-20 16:11:32.639,-2.058000,2.166000,195.180000,-0.090100,-0.310700,0.131100,0.005535,-0.052434,0.076801,0.242000,0.445000,-10.258000
1779273692665584424,2026-05-20 16:11:32.664,-2.046000,2.089000,195.293000,-0.092900,-0.313600,0.133200,0.008199,-0.060339,0.074435,0.281000,0.295000,-10.352000
1779273692691543646,2026-05-20 16:11:32.690,-2.037000,2.002000,195.407000,-0.091100,-0.312600,0.128900,0.001581,-0.063172,0.075085,0.169000,0.409000,-10.203000
1779273692715501979,2026-05-20 16:11:32.714,-2.024000,1.916000,195.521000,-0.091900,-0.310600,0.135400,0.004153,-0.060172,0.072253,0.083000,0.336000,-10.241000
1779273692741515850,2026-05-20 16:11:32.740,-2.014000,1.837000,195.634000,-0.092800,-0.306700,0.134200,0.005184,-0.057657,0.078033,0.168000,0.320000,-10.236000
1779273692765538905,2026-05-20 16:11:32.764,-2.004000,1.758000,195.751000,-0.091900,-0.310600,0.135400,0.004546,-0.059666,0.078402,0.217000,0.369000,-10.244000
1779273692792392220,2026-05-20 16:11:32.791,-2.000000,1.678000,195.871000,-0.095600,-0.309600,0.137300,0.001770,-0.054794,0.079230,0.115000,0.510000,-10.176000
1779273692816542794,2026-05-20 16:11:32.815,-1.993000,1.609000,195.994000,-0.091100,-0.314600,0.132200,0.000351,-0.045363,0.081890,0.000000,0.250000,-10.130000
1779273692841414794,2026-05-20 16:11:32.840,-1.990000,1.556000,196.123000,-0.096500,-0.308600,0.135100,-0.000866,-0.036269,0.088213,0.114000,0.300000,-10.152000
1779273692866910350,2026-05-20 16:11:32.865,-1.991000,1.513000,196.261000,-0.093800,-0.311600,0.134200,-0.005325,-0.032832,0.093186,0.185000,0.272000,-10.255000
1779273692891659831,2026-05-20 16:11:32.890,-1.994000,1.472000,196.400000,-0.094700,-0.309600,0.135200,-0.004388,-0.027566,0.099751,0.171000,0.312000,-10.155000
1779273692916406294,2026-05-20 16:11:32.915,-1.997000,1.438000,196.546000,-0.095600,-0.309600,0.136200,-0.007340,-0.020349,0.102828,-0.052000,0.196000,-10.010000
1779273692941826998,2026-05-20 16:11:32.940,-2.003000,1.420000,196.698000,-0.095600,-0.306700,0.133000,-0.006564,-0.013360,0.104385,0.171000,0.352000,-10.158000
1779273692966747794,2026-05-20 16:11:32.965,-2.012000,1.416000,196.859000,-0.101200,-0.310500,0.130600,-0.008937,-0.006253,0.110713,0.213000,0.495000,-10.278000
1779273692991531424,2026-05-20 16:11:32.990,-2.020000,1.410000,197.027000,-0.095700,-0.311500,0.137300,-0.010164,-0.005096,0.115579,0.259000,0.396000,-10.067000
1779273693016410016,2026-05-20 16:11:33.015,-2.030000,1.404000,197.196000,-0.097600,-0.313500,0.132900,-0.007964,-0.005892,0.116723,0.157000,0.471000,-10.046000
1779273693041350812,2026-05-20 16:11:33.040,-2.041000,1.410000,197.374000,-0.100300,-0.310500,0.134900,-0.009558,-0.002909,0.120483,0.157000,0.313000,-10.144000
1779273693066531498,2026-05-20 16:11:33.065,-2.056000,1.427000,197.549000,-0.100300,-0.309500,0.136000,-0.014747,0.008244,0.122187,0.339000,0.471000,-10.218000
1779273693091631849,2026-05-20 16:11:33.090,-2.070000,1.441000,197.724000,-0.100300,-0.310500,0.136000,-0.013901,0.010016,0.120920,0.261000,0.433000,-10.061000
1779273693115432924,2026-05-20 16:11:33.114,-2.086000,1.450000,197.902000,-0.100200,-0.306600,0.132700,-0.012252,-0.001908,0.121480,0.215000,0.481000,-10.029000
1779273693141348405,2026-05-20 16:11:33.140,-2.099000,1.463000,198.077000,-0.104900,-0.308500,0.130300,-0.013292,0.000420,0.120900,0.330000,0.311000,-10.214000
1779273693203956053,2026-05-20 16:11:33.202,-2.126000,1.487000,198.425000,-0.105800,-0.308400,0.130300,-0.016330,0.004000,0.119226,0.342000,0.415000,-10.131000
1779273693215440312,2026-05-20 16:11:33.214,-2.143000,1.490000,198.599000,-0.106700,-0.308400,0.129200,-0.012464,-0.006029,0.118413,0.183000,0.410000,-10.114000
1779273693241356460,2026-05-20 16:11:33.240,-2.152000,1.490000,198.771000,-0.108600,-0.309400,0.132300,-0.009541,-0.007927,0.117633,0.358000,0.368000,-10.234000
1779273693266768442,2026-05-20 16:11:33.265,-2.160000,1.487000,198.943000,-0.107600,-0.306400,0.132400,-0.007959,-0.005313,0.118373,0.360000,0.511000,-10.075000
1779273693291512294,2026-05-20 16:11:33.290,-2.169000,1.479000,199.116000,-0.109600,-0.311300,0.125800,-0.010154,-0.009607,0.116935,0.235000,0.401000,-10.076000
1779273693316557590,2026-05-20 16:11:33.315,-2.177000,1.468000,199.290000,-0.110500,-0.309300,0.132200,-0.006238,-0.016233,0.118555,0.332000,0.453000,-10.170000
1779273693341339220,2026-05-20 16:11:33.340,-2.182000,1.451000,199.460000,-0.112300,-0.306400,0.129900,-0.005037,-0.019346,0.115572,0.307000,0.470000,-10.127000
1779273693366309849,2026-05-20 16:11:33.365,-2.182000,1.431000,199.635000,-0.112200,-0.305400,0.133200,-0.002674,-0.016724,0.120843,0.294000,0.388000,-10.217000
1779273693391493497,2026-05-20 16:11:33.390,-2.183000,1.411000,199.807000,-0.113200,-0.304400,0.133100,-0.003305,-0.017590,0.117691,0.137000,0.437000,-10.138000
1779273693416332479,2026-05-20 16:11:33.415,-2.182000,1.391000,199.977000,-0.112200,-0.303400,0.134300,-0.002265,-0.023154,0.116368,0.323000,0.429000,-10.218000
1779273693441345923,2026-05-20 16:11:33.440,-2.180000,1.369000,200.149000,-0.114000,-0.300400,0.133100,0.000072,-0.018888,0.117318,0.288000,0.439000,-10.207000
1779273693465532312,2026-05-20 16:11:33.464,-2.171000,1.346000,200.318000,-0.115000,-0.304300,0.129800,0.004193,-0.017167,0.116031,0.135000,0.356000,-10.166000
1779273693491466127,2026-05-20 16:11:33.490,-2.163000,1.327000,200.485000,-0.116800,-0.301400,0.137200,0.004824,-0.016789,0.113724,0.229000,0.504000,-10.159000
1779273693516313497,2026-05-20 16:11:33.515,-2.151000,1.308000,200.647000,-0.115900,-0.304300,0.133000,0.005683,-0.019457,0.110933,0.217000,0.386000,-10.182000
1779273693541249275,2026-05-20 16:11:33.540,-2.141000,1.290000,200.810000,-0.117800,-0.304300,0.128600,0.005587,-0.015729,0.112384,0.235000,0.476000,-10.158000
1779273693566492608,2026-05-20 16:11:33.565,-2.125000,1.275000,200.969000,-0.115000,-0.305300,0.130900,0.009410,-0.010316,0.106754,0.133000,0.405000,-10.100000
1779273693591746349,2026-05-20 16:11:33.590,-2.109000,1.266000,201.125000,-0.118700,-0.302300,0.130700,0.010913,-0.011418,0.107395,0.131000,0.493000,-10.195000
1779273693616289405,2026-05-20 16:11:33.615,-2.093000,1.263000,201.279000,-0.119600,-0.301300,0.131700,0.007637,-0.004887,0.105990,0.229000,0.366000,-10.173000
1779273693641252831,2026-05-20 16:11:33.640,-2.080000,1.266000,201.434000,-0.116800,-0.300400,0.132900,0.009161,0.002565,0.105374,0.168000,0.504000,-10.133000
1779273693666256645,2026-05-20 16:11:33.665,-2.063000,1.275000,201.585000,-0.122400,-0.301300,0.131500,0.007568,0.006907,0.102287,0.130000,0.337000,-10.124000
1779273693691481405,2026-05-20 16:11:33.690,-2.047000,1.290000,201.732000,-0.122300,-0.296400,0.131500,0.010956,0.007926,0.103471,0.189000,0.438000,-10.182000
1779273693716365071,2026-05-20 16:11:33.715,-2.034000,1.308000,201.881000,-0.122300,-0.300300,0.132600,0.003191,0.010377,0.104401,0.172000,0.376000,-10.163000
1779273693741308442,2026-05-20 16:11:33.740,-2.022000,1.331000,202.027000,-0.124200,-0.301200,0.131400,0.006942,0.017492,0.100806,0.113000,0.445000,-10.096000
1779273693766256516,2026-05-20 16:11:33.765,-2.013000,1.360000,202.173000,-0.126100,-0.301200,0.130300,0.002609,0.018321,0.100641,0.189000,0.448000,-10.097000
1779273693791548756,2026-05-20 16:11:33.790,-2.002000,1.393000,202.319000,-0.124200,-0.301200,0.134700,0.004794,0.019490,0.100773,0.174000,0.354000,-10.147000
1779273693816423368,2026-05-20 16:11:33.815,-1.996000,1.428000,202.467000,-0.126000,-0.298200,0.137800,0.002554,0.024935,0.101424,0.260000,0.480000,-10.131000
1779273693841265979,2026-05-20 16:11:33.840,-1.988000,1.464000,202.612000,-0.127900,-0.298200,0.130200,0.001459,0.025326,0.099845,0.200000,0.318000,-10.082000
1779273693866508923,2026-05-20 16:11:33.865,-1.988000,1.504000,202.759000,-0.129800,-0.302100,0.132300,-0.000635,0.024130,0.103183,0.228000,0.417000,-10.166000
1779273693891471293,2026-05-20 16:11:33.890,-1.985000,1.543000,202.908000,-0.129600,-0.293300,0.135400,-0.003255,0.023384,0.103964,0.258000,0.277000,-10.166000
1779273693916221960,2026-05-20 16:11:33.915,-1.985000,1.581000,203.056000,-0.131600,-0.301100,0.133200,-0.000109,0.023511,0.103649,0.283000,0.461000,-10.154000
1779273693941247164,2026-05-20 16:11:33.940,-1.986000,1.617000,203.208000,-0.132600,-0.300100,0.132100,-0.007508,0.024056,0.106259,0.303000,0.322000,-10.117000
1779273693966249256,2026-05-20 16:11:33.965,-1.992000,1.653000,203.362000,-0.131600,-0.300100,0.130000,-0.003998,0.021129,0.107549,0.250000,0.413000,-10.122000
1779273693991462923,2026-05-20 16:11:33.990,-1.997000,1.688000,203.521000,-0.132400,-0.292200,0.134200,-0.010076,0.017376,0.110303,0.335000,0.440000,-10.189000
1779273694016311923,2026-05-20 16:11:34.015,-2.004000,1.717000,203.678000,-0.134300,-0.297100,0.134100,-0.004979,0.015524,0.108340,0.266000,0.347000,-10.168000
1779273694041238497,2026-05-20 16:11:34.040,-2.011000,1.741000,203.840000,-0.137200,-0.299000,0.128600,-0.011370,0.010466,0.112185,0.329000,0.479000,-10.180000
1779273694066214367,2026-05-20 16:11:34.065,-2.021000,1.759000,204.003000,-0.135200,-0.296100,0.133000,-0.008704,0.006812,0.112052,0.341000,0.344000,-10.124000
1779273694091509386,2026-05-20 16:11:34.090,-2.034000,1.775000,204.170000,-0.139000,-0.296000,0.133900,-0.011516,0.003937,0.114264,0.347000,0.451000,-10.189000
1779273694116250349,2026-05-20 16:11:34.115,-2.044000,1.782000,204.334000,-0.138000,-0.293100,0.129600,-0.010390,0.000224,0.112093,0.363000,0.232000,-10.129000
1779273694141170738,2026-05-20 16:11:34.140,-2.057000,1.782000,204.503000,-0.137900,-0.290200,0.131700,-0.012133,-0.008416,0.115499,0.344000,0.456000,-10.168000
1779273694204594201,2026-05-20 16:11:34.203,-2.084000,1.763000,204.836000,-0.140900,-0.298000,0.132700,-0.011321,-0.014105,0.113227,0.346000,0.443000,-10.149000
1779273694216238386,2026-05-20 16:11:34.215,-2.096000,1.746000,205.000000,-0.140700,-0.292100,0.131600,-0.015293,-0.019116,0.113727,0.343000,0.381000,-10.125000
1779273694241205645,2026-05-20 16:11:34.240,-2.112000,1.721000,205.167000,-0.140800,-0.295000,0.134900,-0.010240,-0.023418,0.112925,0.298000,0.465000,-10.163000
1779273694266247571,2026-05-20 16:11:34.265,-2.123000,1.694000,205.329000,-0.143600,-0.295000,0.133600,-0.011112,-0.022824,0.111261,0.310000,0.442000,-10.142000
1779273694291588738,2026-05-20 16:11:34.290,-2.134000,1.663000,205.492000,-0.140700,-0.289200,0.133700,-0.009239,-0.026752,0.111456,0.306000,0.415000,-10.147000
1779273694316214034,2026-05-20 16:11:34.315,-2.146000,1.628000,205.658000,-0.144500,-0.293000,0.132500,-0.010649,-0.030778,0.111390,0.355000,0.463000,-10.174000
1779273694341205404,2026-05-20 16:11:34.340,-2.154000,1.590000,205.822000,-0.142600,-0.292100,0.128300,-0.005583,-0.032066,0.111420,0.290000,0.383000,-10.184000
1779273694366165071,2026-05-20 16:11:34.365,-2.160000,1.550000,205.987000,-0.146500,-0.294200,0.130100,-0.007159,-0.032264,0.111243,0.347000,0.450000,-10.177000
1779273694391383719,2026-05-20 16:11:34.390,-2.165000,1.509000,206.153000,-0.144600,-0.295200,0.131300,-0.007720,-0.033518,0.113054,0.248000,0.370000,-10.118000
1779273694416228719,2026-05-20 16:11:34.415,-2.173000,1.469000,206.317000,-0.146400,-0.293200,0.133300,-0.004370,-0.034228,0.111480,0.296000,0.498000,-10.192000
1779273694441158089,2026-05-20 16:11:34.440,-2.176000,1.427000,206.480000,-0.148300,-0.291200,0.130000,-0.005025,-0.034808,0.111464,0.272000,0.353000,-10.171000
1779273694466241293,2026-05-20 16:11:34.465,-2.178000,1.384000,206.646000,-0.148300,-0.292200,0.125600,-0.001804,-0.033317,0.111421,0.242000,0.488000,-10.168000
1779273694491326052,2026-05-20 16:11:34.490,-2.179000,1.342000,206.810000,-0.146400,-0.290300,0.129000,-0.002043,-0.032013,0.112011,0.217000,0.415000,-10.139000
1779273694516308404,2026-05-20 16:11:34.515,-2.180000,1.303000,206.974000,-0.149200,-0.291200,0.131000,0.001205,-0.029958,0.109726,0.242000,0.454000,-10.143000
1779273694541122460,2026-05-20 16:11:34.540,-2.178000,1.267000,207.138000,-0.151000,-0.289200,0.132000,-0.001563,-0.029096,0.112353,0.212000,0.370000,-10.160000
1779273694566327367,2026-05-20 16:11:34.565,-2.177000,1.232000,207.299000,-0.149200,-0.290200,0.128800,0.002013,-0.025898,0.111421,0.200000,0.395000,-10.119000
1779273694591331312,2026-05-20 16:11:34.590,-2.173000,1.203000,207.462000,-0.151000,-0.291200,0.132000,0.000692,-0.023325,0.110511,0.173000,0.453000,-10.117000
1779273694616209830,2026-05-20 16:11:34.615,-2.169000,1.180000,207.623000,-0.151900,-0.288200,0.128700,0.002709,-0.017239,0.110628,0.222000,0.394000,-10.174000
1779273694641075163,2026-05-20 16:11:34.640,-2.166000,1.162000,207.786000,-0.150900,-0.284300,0.133000,-0.000695,-0.012030,0.112111,0.178000,0.458000,-10.133000
1779273694666089052,2026-05-20 16:11:34.665,-2.164000,1.151000,207.948000,-0.149900,-0.283300,0.135200,0.002118,-0.006161,0.111039,0.141000,0.400000,-10.109000
1779273694691353200,2026-05-20 16:11:34.690,-2.159000,1.146000,208.107000,-0.153800,-0.289200,0.131800,0.002220,-0.004476,0.110384,0.182000,0.444000,-10.140000
1779273694716265700,2026-05-20 16:11:34.715,-2.155000,1.147000,208.267000,-0.154700,-0.286200,0.133900,0.001169,-0.000801,0.110618,0.170000,0.410000,-10.137000
1779273694741157589,2026-05-20 16:11:34.740,-2.153000,1.153000,208.426000,-0.156500,-0.287200,0.130600,0.000271,0.005591,0.109238,0.142000,0.467000,-10.174000
1779273694766171219,2026-05-20 16:11:34.765,-2.150000,1.166000,208.583000,-0.154600,-0.285200,0.133900,0.001371,0.009365,0.107605,0.150000,0.393000,-10.139000
1779273694791260441,2026-05-20 16:11:34.790,-2.147000,1.187000,208.739000,-0.159300,-0.287100,0.130400,0.001091,0.011577,0.107368,0.197000,0.403000,-10.174000
1779273694816230330,2026-05-20 16:11:34.815,-2.144000,1.212000,208.897000,-0.159300,-0.286100,0.130400,-0.000318,0.015376,0.106914,0.231000,0.404000,-10.176000
1779273694841217404,2026-05-20 16:11:34.840,-2.143000,1.238000,209.049000,-0.159200,-0.283200,0.130400,0.000257,0.017529,0.104578,0.188000,0.435000,-10.114000
1779273694866357071,2026-05-20 16:11:34.865,-2.142000,1.270000,209.202000,-0.160200,-0.285100,0.130400,-0.002067,0.019493,0.103716,0.216000,0.382000,-10.128000
1779273694891389200,2026-05-20 16:11:34.890,-2.142000,1.305000,209.354000,-0.160200,-0.284100,0.130400,-0.000654,0.022820,0.103875,0.226000,0.402000,-10.164000
1779273694918901330,2026-05-20 16:11:34.915,-2.143000,1.344000,209.503000,-0.159200,-0.281200,0.131500,-0.002441,0.023871,0.102204,0.252000,0.439000,-10.172000
1779273694941138608,2026-05-20 16:11:34.940,-2.143000,1.380000,209.646000,-0.161100,-0.282200,0.130300,-0.000047,0.024126,0.098969,0.244000,0.394000,-10.143000
1779273694966231793,2026-05-20 16:11:34.965,-2.145000,1.419000,209.792000,-0.160200,-0.284100,0.131500,-0.002970,0.021340,0.098978,0.230000,0.423000,-10.157000
1779273694991118200,2026-05-20 16:11:34.990,-2.148000,1.456000,209.933000,-0.164700,-0.276200,0.130100,-0.003145,0.021346,0.097209,0.283000,0.383000,-10.152000
1779273695016106774,2026-05-20 16:11:35.015,-2.151000,1.493000,210.074000,-0.163900,-0.283100,0.129100,-0.003150,0.022586,0.096843,0.286000,0.447000,-10.163000
1779273695041072330,2026-05-20 16:11:35.040,-2.152000,1.529000,210.215000,-0.165700,-0.281100,0.133300,-0.002193,0.018552,0.095717,0.330000,0.379000,-10.161000
1779273695066030478,2026-05-20 16:11:35.065,-2.155000,1.558000,210.355000,-0.165700,-0.283100,0.130100,-0.003150,0.015057,0.095930,0.333000,0.429000,-10.176000
1779273695091211478,2026-05-20 16:11:35.090,-2.157000,1.585000,210.495000,-0.167600,-0.282100,0.127800,-0.002392,0.014855,0.094113,0.275000,0.411000,-10.171000
1779273695116063107,2026-05-20 16:11:35.115,-2.159000,1.609000,210.633000,-0.169400,-0.281000,0.131000,-0.002299,0.011885,0.093511,0.332000,0.426000,-10.185000
1779273695141111774,2026-05-20 16:11:35.140,-2.160000,1.628000,210.768000,-0.170400,-0.283000,0.132000,-0.002776,0.006905,0.091175,0.278000,0.416000,-10.208000
1779273695204459811,2026-05-20 16:11:35.203,-2.161000,1.648000,211.038000,-0.168500,-0.281000,0.132100,-0.002371,0.000321,0.091827,0.324000,0.421000,-10.145000
1779273695216164644,2026-05-20 16:11:35.215,-2.160000,1.655000,211.171000,-0.173000,-0.278000,0.129700,-0.001230,0.000866,0.093578,0.340000,0.403000,-10.164000
1779273695241150904,2026-05-20 16:11:35.240,-2.159000,1.658000,211.307000,-0.172900,-0.273100,0.130700,-0.002345,-0.003302,0.093914,0.371000,0.397000,-10.145000
1779273695266172293,2026-05-20 16:11:35.265,-2.158000,1.663000,211.450000,-0.173000,-0.278000,0.128600,-0.001767,-0.000974,0.097894,0.363000,0.426000,-10.183000
1779273695291195607,2026-05-20 16:11:35.290,-2.159000,1.673000,211.595000,-0.172100,-0.279000,0.129700,-0.003547,0.005285,0.100740,0.420000,0.474000,-10.117000
1779273695316040293,2026-05-20 16:11:35.315,-2.159000,1.690000,211.744000,-0.174000,-0.280000,0.131800,-0.004782,0.007431,0.104424,0.440000,0.362000,-10.119000
1779273695341077996,2026-05-20 16:11:35.340,-2.161000,1.717000,211.898000,-0.176800,-0.278900,0.130600,-0.004384,0.016758,0.107369,0.385000,0.362000,-10.141000
1779273695366000422,2026-05-20 16:11:35.364,-2.162000,1.756000,212.054000,-0.175800,-0.278000,0.132800,-0.004757,0.024832,0.108877,0.496000,0.312000,-10.142000
1779273695391218922,2026-05-20 16:11:35.390,-2.164000,1.813000,212.214000,-0.174900,-0.278000,0.132800,-0.002727,0.039095,0.110182,0.511000,0.456000,-10.103000
1779273695416078904,2026-05-20 16:11:35.414,-2.165000,1.885000,212.376000,-0.176700,-0.277000,0.131600,-0.006032,0.049037,0.115273,0.524000,0.403000,-10.115000
1779273695441088774,2026-05-20 16:11:35.440,-2.169000,1.973000,212.543000,-0.177700,-0.279900,0.131600,-0.005982,0.059043,0.117209,0.556000,0.352000,-10.157000
1779273695466025330,2026-05-20 16:11:35.464,-2.170000,2.072000,212.709000,-0.178600,-0.276000,0.119600,-0.004854,0.066296,0.118588,0.587000,0.354000,-10.139000
1779273695491163663,2026-05-20 16:11:35.490,-2.172000,2.177000,212.885000,-0.182200,-0.272900,0.130200,-0.004556,0.071972,0.122183,0.628000,0.306000,-10.200000
1779273695515995459,2026-05-20 16:11:35.514,-2.175000,2.288000,213.064000,-0.183300,-0.277800,0.128000,-0.006642,0.075885,0.126186,0.716000,0.303000,-10.132000
1779273695541103144,2026-05-20 16:11:35.540,-2.178000,2.405000,213.243000,-0.183100,-0.270000,0.125800,-0.008746,0.080226,0.126019,0.758000,0.342000,-10.076000
1779273695565945311,2026-05-20 16:11:35.564,-2.181000,2.530000,213.425000,-0.185100,-0.275800,0.126900,-0.008608,0.084528,0.128473,0.792000,0.464000,-10.044000
1779273695591357015,2026-05-20 16:11:35.590,-2.185000,2.669000,213.606000,-0.185100,-0.276800,0.126900,-0.008462,0.095016,0.125127,0.906000,0.561000,-9.928000
1779273695615969737,2026-05-20 16:11:35.614,-2.186000,2.826000,213.778000,-0.188600,-0.268900,0.124400,-0.004483,0.108161,0.117466,1.092000,0.609000,-10.017000
1779273695641034274,2026-05-20 16:11:35.639,-2.185000,2.995000,213.944000,-0.189600,-0.271800,0.125500,-0.004445,0.119634,0.114302,1.024000,0.489000,-10.160000
1779273695665975848,2026-05-20 16:11:35.664,-2.188000,3.173000,214.106000,-0.189600,-0.270900,0.123300,-0.006840,0.121567,0.112597,0.891000,0.482000,-10.163000
1779273695691155255,2026-05-20 16:11:35.690,-2.188000,3.364000,214.256000,-0.190500,-0.267900,0.124300,-0.006052,0.130098,0.102399,1.252000,0.647000,-9.977000
1779273695715974311,2026-05-20 16:11:35.714,-2.184000,3.564000,214.394000,-0.193200,-0.265900,0.122000,0.001174,0.137769,0.092350,1.318000,0.406000,-10.043000
1779273695741011737,2026-05-20 16:11:35.739,-2.183000,3.761000,214.531000,-0.196900,-0.266800,0.120700,-0.005236,0.132962,0.097318,1.354000,0.331000,-10.103000
1779273695765963866,2026-05-20 16:11:35.764,-2.184000,3.952000,214.662000,-0.197000,-0.266800,0.125100,-0.009283,0.123819,0.093438,1.417000,0.316000,-10.144000
1779273695791459940,2026-05-20 16:11:35.790,-2.179000,4.136000,214.783000,-0.199700,-0.266800,0.122800,-0.000677,0.124409,0.081759,1.371000,0.422000,-10.057000
1779273695815935755,2026-05-20 16:11:35.814,-2.173000,4.305000,214.901000,-0.198700,-0.262900,0.122800,-0.003004,0.111171,0.081619,1.631000,0.520000,-10.066000
1779273695840899329,2026-05-20 16:11:35.839,-2.170000,4.456000,215.018000,-0.199800,-0.268700,0.119500,-0.004292,0.094909,0.078166,1.377000,0.450000,-10.099000
1779273695866061903,2026-05-20 16:11:35.864,-2.164000,4.588000,215.129000,-0.200600,-0.265800,0.119500,0.000454,0.081968,0.073401,1.649000,0.334000,-10.054000
1779273695891332533,2026-05-20 16:11:35.890,-2.157000,4.693000,215.240000,-0.202500,-0.267700,0.120500,-0.002663,0.063880,0.074016,1.651000,0.400000,-10.142000
1779273695915929700,2026-05-20 16:11:35.914,-2.151000,4.777000,215.350000,-0.205300,-0.265700,0.118100,-0.001628,0.048061,0.073042,1.419000,0.432000,-10.025000
1779273695940910737,2026-05-20 16:11:35.939,-2.144000,4.837000,215.457000,-0.204300,-0.263800,0.114900,-0.000350,0.033683,0.068212,1.843000,0.324000,-10.157000
1779273695966030829,2026-05-20 16:11:35.964,-2.138000,4.872000,215.558000,-0.205300,-0.265700,0.114900,-0.002952,0.015305,0.061180,1.415000,0.426000,-10.025000
1779273695991087385,2026-05-20 16:11:35.990,-2.129000,4.885000,215.656000,-0.203400,-0.262800,0.116100,0.000561,-0.000861,0.066132,1.695000,0.364000,-10.079000
1779273696015883366,2026-05-20 16:11:36.014,-2.123000,4.880000,215.750000,-0.205200,-0.259800,0.119200,-0.003085,-0.012181,0.057917,1.525000,0.422000,-10.135000
1779273696040842144,2026-05-20 16:11:36.039,-2.116000,4.856000,215.841000,-0.202400,-0.262800,0.118300,0.002238,-0.021905,0.053831,1.561000,0.399000,-9.997000
1779273696065955848,2026-05-20 16:11:36.064,-2.110000,4.818000,215.929000,-0.205100,-0.257800,0.120200,-0.002637,-0.035125,0.054048,1.481000,0.378000,-10.104000
1779273696091185125,2026-05-20 16:11:36.090,-2.105000,4.768000,216.012000,-0.205100,-0.258800,0.118100,-0.002117,-0.040174,0.054444,1.626000,0.290000,-10.095000
1779273696115947051,2026-05-20 16:11:36.114,-2.102000,4.709000,216.094000,-0.203300,-0.261800,0.121500,-0.002554,-0.042869,0.048774,1.261000,0.431000,-10.037000
1779273696140821218,2026-05-20 16:11:36.139,-2.096000,4.650000,216.169000,-0.204400,-0.266700,0.120400,0.001143,-0.044355,0.044098,1.689000,0.479000,-10.031000
1779273696204417366,2026-05-20 16:11:36.203,-2.094000,4.539000,216.320000,-0.208900,-0.262700,0.119000,-0.005524,-0.039224,0.045047,1.761000,0.421000,-10.090000
1779273696215966644,2026-05-20 16:11:36.214,-2.096000,4.482000,216.388000,-0.206200,-0.264700,0.124600,-0.001798,-0.045681,0.039357,0.915000,0.443000,-9.992000
1779273696240945662,2026-05-20 16:11:36.239,-2.094000,4.416000,216.455000,-0.207100,-0.263700,0.124500,-0.002277,-0.051258,0.038739,1.592000,0.314000,-10.161000
1779273696266748440,2026-05-20 16:11:36.265,-2.094000,4.340000,216.519000,-0.206100,-0.261700,0.122400,-0.003941,-0.055330,0.039945,0.821000,0.283000,-10.127000
1779273696291228848,2026-05-20 16:11:36.290,-2.095000,4.262000,216.581000,-0.206200,-0.264700,0.122400,-0.004844,-0.056932,0.035473,1.272000,0.522000,-9.971000
1779273696315992310,2026-05-20 16:11:36.314,-2.096000,4.190000,216.636000,-0.206100,-0.261700,0.121300,-0.000771,-0.052611,0.033053,0.975000,0.332000,-10.104000
1779273696340908199,2026-05-20 16:11:36.339,-2.097000,4.114000,216.692000,-0.206100,-0.262700,0.119200,-0.004232,-0.054133,0.031757,1.025000,0.253000,-10.225000
1779273696365958181,2026-05-20 16:11:36.364,-2.098000,4.028000,216.748000,-0.205200,-0.263700,0.125700,-0.004412,-0.064758,0.031064,0.930000,0.431000,-10.064000
1779273696390978847,2026-05-20 16:11:36.389,-2.097000,3.936000,216.803000,-0.205200,-0.259800,0.122400,0.000481,-0.070481,0.032200,0.889000,0.500000,-10.123000
1779273696415813922,2026-05-20 16:11:36.414,-2.094000,3.844000,216.852000,-0.209800,-0.259700,0.123300,-0.001160,-0.060671,0.027056,0.805000,0.364000,-10.064000
1779273696440859699,2026-05-20 16:11:36.439,-2.092000,3.762000,216.901000,-0.206200,-0.264700,0.126700,-0.000159,-0.055112,0.026647,0.619000,0.292000,-10.044000
1779273696465945162,2026-05-20 16:11:36.464,-2.093000,3.687000,216.948000,-0.204300,-0.263700,0.122500,-0.002121,-0.058476,0.028264,0.946000,0.503000,-10.155000
1779273696491498421,2026-05-20 16:11:36.489,-2.092000,3.610000,216.990000,-0.207100,-0.261700,0.124500,0.000123,-0.054378,0.021675,0.632000,0.366000,-10.220000
1779273696515843107,2026-05-20 16:11:36.514,-2.089000,3.533000,217.032000,-0.203300,-0.257800,0.129000,-0.000961,-0.049983,0.021746,0.622000,0.384000,-10.176000
1779273696540791588,2026-05-20 16:11:36.539,-2.089000,3.462000,217.068000,-0.204100,-0.255900,0.127900,-0.002227,-0.052386,0.017290,0.739000,0.491000,-10.095000
1779273696566186977,2026-05-20 16:11:36.564,-2.090000,3.402000,217.104000,-0.203400,-0.262800,0.124700,0.000197,-0.042073,0.016982,0.646000,0.417000,-10.272000
1779273696591030570,2026-05-20 16:11:36.589,-2.090000,3.349000,217.132000,-0.204300,-0.261700,0.127900,-0.002768,-0.031637,0.014829,0.765000,0.248000,-10.157000
1779273696615780810,2026-05-20 16:11:36.614,-2.092000,3.301000,217.158000,-0.205200,-0.261700,0.122400,-0.002319,-0.033997,0.011177,0.494000,0.408000,-10.125000
1779273696640723625,2026-05-20 16:11:36.639,-2.094000,3.260000,217.181000,-0.203300,-0.260800,0.127900,0.000518,-0.031031,0.012956,0.634000,0.405000,-10.194000
1779273696665867032,2026-05-20 16:11:36.664,-2.095000,3.225000,217.197000,-0.203200,-0.256900,0.125800,-0.003185,-0.016907,0.009644,0.698000,0.387000,-10.197000
1779273696690862681,2026-05-20 16:11:36.689,-2.097000,3.202000,217.211000,-0.205100,-0.258800,0.124600,0.000279,-0.011649,0.004726,0.334000,0.287000,-10.106000
1779273696715825884,2026-05-20 16:11:36.714,-2.101000,3.190000,217.223000,-0.206000,-0.255800,0.127800,-0.004505,-0.011436,0.005872,0.802000,0.475000,-10.251000
1779273696740734125,2026-05-20 16:11:36.739,-2.106000,3.179000,217.234000,-0.204200,-0.257800,0.125700,-0.004826,-0.006676,0.002894,0.709000,0.389000,-10.173000
1779273696765760181,2026-05-20 16:11:36.764,-2.108000,3.163000,217.240000,-0.204300,-0.260800,0.127900,0.001139,-0.006947,0.000878,0.456000,0.340000,-10.082000
1779273696790847144,2026-05-20 16:11:36.789,-2.111000,3.153000,217.242000,-0.205200,-0.260800,0.121400,-0.000839,-0.009530,-0.001138,0.693000,0.350000,-10.225000
1779273696815893995,2026-05-20 16:11:36.814,-2.115000,3.149000,217.243000,-0.203300,-0.260800,0.124700,-0.002990,-0.001622,-0.003260,0.441000,0.370000,-10.229000
1779273696840736125,2026-05-20 16:11:36.839,-2.118000,3.143000,217.237000,-0.203300,-0.257900,0.126800,-0.002375,0.001698,-0.005938,0.586000,0.372000,-10.120000
1779273696866665514,2026-05-20 16:11:36.865,-2.122000,3.135000,217.232000,-0.205200,-0.260800,0.126800,-0.001365,-0.009003,-0.008012,0.750000,0.385000,-10.092000
1779273696890764458,2026-05-20 16:11:36.889,-2.122000,3.125000,217.221000,-0.204300,-0.260800,0.126800,0.000850,-0.009463,-0.007381,0.644000,0.341000,-10.129000
1779273696915805458,2026-05-20 16:11:36.914,-2.121000,3.110000,217.212000,-0.203300,-0.261800,0.130100,0.001897,-0.005350,-0.007414,0.706000,0.210000,-10.170000
1779273696940773199,2026-05-20 16:11:36.939,-2.121000,3.094000,217.201000,-0.204200,-0.257800,0.126800,-0.000715,-0.011691,-0.012073,0.423000,0.363000,-10.073000
1779273696965837792,2026-05-20 16:11:36.964,-2.120000,3.079000,217.188000,-0.200600,-0.262800,0.124900,0.002860,-0.017679,-0.009599,0.644000,0.392000,-10.161000
1779273696990712921,2026-05-20 16:11:36.989,-2.119000,3.057000,217.174000,-0.204300,-0.263700,0.125800,0.000932,-0.012910,-0.010964,0.933000,0.266000,-10.136000
1779273697015914606,2026-05-20 16:11:37.014,-2.116000,3.027000,217.159000,-0.202400,-0.260800,0.124700,0.004957,-0.020599,-0.016101,0.440000,0.396000,-9.984000
1779273697040776440,2026-05-20 16:11:37.039,-2.111000,3.001000,217.146000,-0.203400,-0.262700,0.138800,0.007122,-0.024658,-0.013133,0.582000,0.389000,-10.238000
1779273697065692440,2026-05-20 16:11:37.064,-2.107000,2.970000,217.130000,-0.204200,-0.258800,0.122500,-0.000258,-0.018971,-0.012956,0.647000,0.204000,-10.242000
1779273697090892847,2026-05-20 16:11:37.089,-2.107000,2.930000,217.123000,-0.201400,-0.256900,0.126900,-0.000183,-0.026916,-0.007632,0.434000,0.420000,-9.996000
1779273697115722977,2026-05-20 16:11:37.114,-2.107000,2.880000,217.121000,-0.202400,-0.261800,0.123700,0.001898,-0.043629,-0.003887,0.684000,0.357000,-10.185000
1779273697140715903,2026-05-20 16:11:37.139,-2.105000,2.811000,217.124000,-0.201500,-0.262800,0.122600,0.001635,-0.053497,0.001173,0.599000,0.344000,-10.225000
1779273697204174680,2026-05-20 16:11:37.203,-2.110000,2.596000,217.166000,-0.200500,-0.258900,0.129200,-0.007474,-0.093444,0.017731,0.273000,0.349000,-10.256000
1779273697215842162,2026-05-20 16:11:37.214,-2.117000,2.464000,217.205000,-0.201500,-0.260800,0.124800,-0.007220,-0.095624,0.026149,0.353000,0.428000,-10.251000
1779273697240725625,2026-05-20 16:11:37.239,-2.124000,2.317000,217.256000,-0.199500,-0.257900,0.130300,-0.008567,-0.100887,0.032315,0.321000,0.379000,-10.036000
1779273697265718791,2026-05-20 16:11:37.264,-2.134000,2.158000,217.316000,-0.201400,-0.256900,0.130200,-0.009433,-0.120025,0.037637,0.202000,0.384000,-10.178000
1779273697290739977,2026-05-20 16:11:37.289,-2.150000,1.988000,217.388000,-0.199500,-0.257900,0.127000,-0.014195,-0.126949,0.046728,0.241000,0.445000,-10.388000
1779273697315709421,2026-05-20 16:11:37.314,-2.164000,1.798000,217.464000,-0.199600,-0.258900,0.129200,-0.012315,-0.131487,0.050122,-0.005000,0.410000,-10.117000
1779273697340633514,2026-05-20 16:11:37.339,-2.177000,1.608000,217.548000,-0.199500,-0.257900,0.130300,-0.008866,-0.135595,0.054851,-0.069000,0.385000,-10.144000
1779273697365585514,2026-05-20 16:11:37.364,-2.194000,1.426000,217.643000,-0.198700,-0.261800,0.132500,-0.014543,-0.128964,0.062960,-0.074000,0.501000,-10.272000
1779273697391079106,2026-05-20 16:11:37.389,-2.214000,1.242000,217.750000,-0.197700,-0.260900,0.131500,-0.014712,-0.129088,0.071670,-0.090000,0.396000,-10.299000
1779273697415695754,2026-05-20 16:11:37.414,-2.236000,1.043000,217.870000,-0.198700,-0.261800,0.130400,-0.020171,-0.145472,0.081619,-0.156000,0.207000,-10.204000
1779273697440618439,2026-05-20 16:11:37.439,-2.257000,0.841000,218.000000,-0.196700,-0.256000,0.133600,-0.013815,-0.143017,0.085697,-0.192000,0.342000,-10.253000
1779273697465710014,2026-05-20 16:11:37.464,-2.276000,0.657000,218.137000,-0.196700,-0.255000,0.134700,-0.019165,-0.120152,0.098474,-0.349000,0.434000,-10.010000
1779273697490755106,2026-05-20 16:11:37.489,-2.298000,0.505000,218.280000,-0.196800,-0.257900,0.135800,-0.016692,-0.104522,0.096911,-0.266000,0.460000,-10.086000
1779273697515729513,2026-05-20 16:11:37.514,-2.325000,0.372000,218.433000,-0.199500,-0.254000,0.136700,-0.021009,-0.093823,0.105308,-0.428000,0.720000,-10.157000
1779273697541618421,2026-05-20 16:11:37.540,-2.348000,0.252000,218.585000,-0.196800,-0.257900,0.138000,-0.015834,-0.086340,0.105807,-0.250000,0.450000,-10.101000
1779273697565724865,2026-05-20 16:11:37.564,-2.364000,0.152000,218.743000,-0.198600,-0.258900,0.136800,-0.010226,-0.064688,0.105746,-0.311000,0.554000,-10.203000
1779273697591176865,2026-05-20 16:11:37.589,-2.380000,0.085000,218.907000,-0.198500,-0.251000,0.134600,-0.010927,-0.037903,0.117119,-0.630000,0.560000,-10.065000
1779273697615645939,2026-05-20 16:11:37.614,-2.399000,0.053000,219.068000,-0.198600,-0.255900,0.140000,-0.014163,-0.022747,0.115126,-0.222000,0.516000,-10.185000
1779273697640579587,2026-05-20 16:11:37.639,-2.421000,0.031000,219.240000,-0.201300,-0.253900,0.139900,-0.012864,-0.021051,0.115810,-0.295000,0.644000,-10.284000
1779273697665577532,2026-05-20 16:11:37.664,-2.435000,-0.001000,219.414000,-0.200300,-0.252000,0.135600,-0.007529,-0.029438,0.123618,-0.486000,0.275000,-10.372000
1779273697690749810,2026-05-20 16:11:37.689,-2.441000,-0.032000,219.592000,-0.202300,-0.257800,0.136600,-0.003171,-0.023608,0.125107,-0.127000,0.600000,-10.220000
1779273697715733254,2026-05-20 16:11:37.714,-2.446000,-0.050000,219.776000,-0.205100,-0.258800,0.135400,-0.004368,-0.015037,0.134699,-0.611000,0.318000,-10.031000
1779273697740762143,2026-05-20 16:11:37.739,-2.457000,-0.070000,219.966000,-0.202100,-0.247000,0.136500,-0.005964,-0.026999,0.130774,-0.519000,0.629000,-10.245000
1779273697765616310,2026-05-20 16:11:37.764,-2.465000,-0.118000,220.173000,-0.201200,-0.251000,0.137700,-0.002344,-0.051423,0.144322,-1.038000,0.484000,-10.694000
1779273697790657328,2026-05-20 16:11:37.789,-2.464000,-0.203000,220.395000,-0.201200,-0.249000,0.136600,-0.000986,-0.074605,0.162005,-0.766000,0.399000,-9.963000
1779273697815666347,2026-05-20 16:11:37.814,-2.457000,-0.314000,220.641000,-0.204000,-0.248000,0.138600,0.006770,-0.089239,0.174685,-0.513000,1.100000,-10.122000
1779273697840606050,2026-05-20 16:11:37.839,-2.455000,-0.440000,220.916000,-0.205700,-0.243000,0.138500,0.004822,-0.102441,0.194879,-1.088000,0.233000,-10.147000
1779273697865654550,2026-05-20 16:11:37.864,-2.448000,-0.588000,221.213000,-0.205000,-0.252900,0.140800,0.005446,-0.121733,0.206811,-0.805000,0.681000,-10.217000
1779273697891127976,2026-05-20 16:11:37.889,-2.430000,-0.756000,221.531000,-0.204900,-0.249900,0.137500,0.025445,-0.126461,0.219972,-0.911000,0.335000,-10.078000
1779273697915635365,2026-05-20 16:11:37.914,-2.407000,-0.913000,221.854000,-0.207600,-0.245000,0.136200,0.017768,-0.107877,0.225006,-1.017000,0.451000,-10.227000
1779273697941567587,2026-05-20 16:11:37.940,-2.383000,-1.021000,222.154000,-0.208500,-0.245000,0.135100,0.014083,-0.067367,0.206275,-1.152000,0.885000,-10.028000
1779273697965639698,2026-05-20 16:11:37.964,-2.377000,-1.080000,222.448000,-0.208500,-0.241000,0.135100,0.002868,-0.041167,0.209550,-0.726000,0.490000,-10.183000
1779273697991737624,2026-05-20 16:11:37.990,-2.381000,-1.122000,222.752000,-0.209400,-0.242000,0.139400,0.003933,-0.033289,0.214514,-0.955000,0.478000,-10.122000
1779273698015854532,2026-05-20 16:11:38.014,-2.370000,-1.148000,223.046000,-0.211100,-0.235100,0.139200,0.017928,-0.017655,0.198381,-1.338000,0.758000,-10.145000
1779273698041964476,2026-05-20 16:11:38.040,-2.354000,-1.137000,223.333000,-0.214000,-0.241900,0.141300,0.012364,0.013270,0.201166,-1.020000,0.911000,-10.220000
1779273698065562587,2026-05-20 16:11:38.064,-2.359000,-1.088000,223.623000,-0.213000,-0.235100,0.143500,-0.005546,0.037105,0.211325,-0.977000,0.468000,-9.997000
1779273698091857569,2026-05-20 16:11:38.090,-2.374000,-1.013000,223.913000,-0.214900,-0.238000,0.139000,-0.003906,0.045629,0.204480,-0.789000,0.319000,-10.233000
1779273698115670309,2026-05-20 16:11:38.114,-2.371000,-0.929000,224.201000,-0.215900,-0.240900,0.140100,0.011590,0.052273,0.205768,-0.801000,0.508000,-10.075000
1779273698141545476,2026-05-20 16:11:38.140,-2.360000,-0.838000,224.495000,-0.219500,-0.234900,0.139900,0.009812,0.062381,0.215789,-0.858000,0.495000,-10.060000
1779273698204000383,2026-05-20 16:11:38.202,-2.359000,-0.551000,225.094000,-0.224200,-0.239800,0.136400,0.001803,0.111766,0.216438,-0.793000,0.695000,-10.001000
1779273698215760939,2026-05-20 16:11:38.214,-2.355000,-0.378000,225.396000,-0.225000,-0.233900,0.133100,0.008070,0.110230,0.220714,-0.592000,0.390000,-10.045000
1779273698241532383,2026-05-20 16:11:38.240,-2.339000,-0.204000,225.712000,-0.224900,-0.230900,0.137400,0.016435,0.113387,0.228519,-0.414000,0.509000,-10.019000
1779273698265517032,2026-05-20 16:11:38.264,-2.311000,-0.014000,226.029000,-0.229000,-0.230200,0.132800,0.020812,0.131588,0.224986,-0.341000,0.594000,-9.833000
1779273698291675717,2026-05-20 16:11:38.290,-2.289000,0.203000,226.338000,-0.231800,-0.230200,0.131600,0.012332,0.148268,0.225891,-0.182000,0.479000,-9.985000
1779273698315499143,2026-05-20 16:11:38.314,-2.275000,0.424000,226.663000,-0.233600,-0.228200,0.130400,0.009724,0.143282,0.231061,-0.199000,0.476000,-10.090000
1779273698341531032,2026-05-20 16:11:38.340,-2.246000,0.632000,226.987000,-0.235400,-0.226200,0.128100,0.024404,0.134909,0.232384,-0.453000,0.295000,-9.974000
1779273698365509217,2026-05-20 16:11:38.364,-2.200000,0.830000,227.306000,-0.238100,-0.218300,0.133300,0.033592,0.129824,0.223445,-0.494000,0.724000,-10.013000
1779273698391775346,2026-05-20 16:11:38.390,-2.156000,1.026000,227.634000,-0.239100,-0.221200,0.134400,0.023226,0.127324,0.237395,-0.303000,0.297000,-10.235000
1779273698415525346,2026-05-20 16:11:38.414,-2.125000,1.215000,227.972000,-0.243600,-0.217200,0.133000,0.013067,0.117855,0.238641,-0.075000,0.677000,-10.207000
1779273698441596550,2026-05-20 16:11:38.440,-2.088000,1.371000,228.312000,-0.242700,-0.219200,0.132000,0.024287,0.086323,0.245369,0.180000,0.215000,-10.314000
1779273698465553883,2026-05-20 16:11:38.464,-2.044000,1.459000,228.683000,-0.245500,-0.220100,0.130800,0.023600,0.029199,0.266966,0.160000,0.440000,-10.268000
1779273698491783365,2026-05-20 16:11:38.490,-1.998000,1.487000,229.074000,-0.246300,-0.211200,0.132800,0.024207,0.001751,0.275235,0.014000,0.300000,-10.285000
1779273698516476680,2026-05-20 16:11:38.515,-1.959000,1.499000,229.471000,-0.250200,-0.218100,0.128300,0.017077,0.000751,0.281246,-0.241000,0.206000,-10.003000
1779273698541476550,2026-05-20 16:11:38.540,-1.926000,1.500000,229.877000,-0.249100,-0.214100,0.131600,0.013720,-0.014972,0.284985,0.064000,0.506000,-10.232000
1779273698566471624,2026-05-20 16:11:38.565,-1.897000,1.465000,230.309000,-0.249000,-0.208200,0.132700,0.015102,-0.051034,0.304926,0.171000,0.519000,-10.309000
1779273698591706846,2026-05-20 16:11:38.590,-1.860000,1.387000,230.744000,-0.250700,-0.202300,0.134700,0.020363,-0.073532,0.297420,0.016000,0.367000,-10.227000
1779273698616481328,2026-05-20 16:11:38.615,-1.826000,1.296000,231.185000,-0.251600,-0.201300,0.132500,0.014236,-0.070545,0.302535,0.040000,0.679000,-10.118000
1779273698641478976,2026-05-20 16:11:38.640,-1.813000,1.215000,231.633000,-0.253600,-0.204200,0.132400,-0.004975,-0.065785,0.317784,0.255000,-0.019000,-10.158000
1779273698666462698,2026-05-20 16:11:38.665,-1.815000,1.132000,232.092000,-0.255300,-0.197300,0.134400,-0.002707,-0.072742,0.318141,0.374000,0.425000,-10.320000
1779273698691664531,2026-05-20 16:11:38.690,-1.809000,1.026000,232.550000,-0.257300,-0.205100,0.135400,-0.002400,-0.087736,0.315769,-0.085000,0.309000,-10.324000
1779273698716581105,2026-05-20 16:11:38.715,-1.803000,0.908000,233.016000,-0.258000,-0.194300,0.135300,-0.003609,-0.087848,0.327632,-0.365000,0.049000,-10.210000
1779273698741500679,2026-05-20 16:11:38.740,-1.817000,0.817000,233.495000,-0.259900,-0.197200,0.137400,-0.021173,-0.063346,0.335894,-0.054000,0.335000,-10.094000
1779273698766503013,2026-05-20 16:11:38.765,-1.841000,0.769000,233.973000,-0.261800,-0.197200,0.138400,-0.021047,-0.035856,0.334603,0.000000,0.352000,-10.056000
1779273698791670828,2026-05-20 16:11:38.790,-1.867000,0.741000,234.453000,-0.262600,-0.191300,0.137200,-0.021658,-0.030234,0.338857,0.188000,0.237000,-10.297000
1779273698816461661,2026-05-20 16:11:38.815,-1.891000,0.711000,234.950000,-0.265300,-0.187300,0.139200,-0.020226,-0.029356,0.351007,-0.062000,0.165000,-10.237000
1779273698841530679,2026-05-20 16:11:38.840,-1.917000,0.699000,235.456000,-0.267200,-0.191200,0.137000,-0.023140,-0.010453,0.351311,-0.219000,0.343000,-10.087000
1779273698866510827,2026-05-20 16:11:38.865,-1.948000,0.726000,235.964000,-0.266300,-0.189300,0.132700,-0.030948,0.017010,0.358070,-0.010000,0.348000,-10.201000
1779273698891877253,2026-05-20 16:11:38.890,-1.987000,0.776000,236.480000,-0.269900,-0.187200,0.133600,-0.031755,0.024091,0.365188,0.022000,0.371000,-10.159000
1779273698916509216,2026-05-20 16:11:38.915,-2.023000,0.823000,237.007000,-0.271700,-0.185200,0.132400,-0.026702,0.019967,0.367609,0.021000,0.402000,-10.108000
1779273698941574531,2026-05-20 16:11:38.940,-2.051000,0.877000,237.535000,-0.270700,-0.179400,0.131300,-0.024184,0.027921,0.369292,0.023000,0.347000,-10.111000
1779273698966493531,2026-05-20 16:11:38.965,-2.080000,0.953000,238.067000,-0.273500,-0.178300,0.134400,-0.027940,0.046509,0.375685,0.098000,0.395000,-10.107000
1779273698991629142,2026-05-20 16:11:38.990,-2.118000,1.045000,238.608000,-0.278000,-0.175300,0.135200,-0.035461,0.050742,0.382629,0.072000,0.448000,-10.119000
1779273699016400364,2026-05-20 16:11:39.015,-2.152000,1.134000,239.153000,-0.280800,-0.173300,0.131800,-0.028564,0.043442,0.381626,0.170000,0.491000,-10.174000
1779273699041559827,2026-05-20 16:11:39.040,-2.174000,1.209000,239.699000,-0.282500,-0.165400,0.132700,-0.019981,0.033693,0.383548,0.185000,0.516000,-10.223000
1779273699066436457,2026-05-20 16:11:39.065,-2.190000,1.281000,240.246000,-0.282500,-0.167400,0.130600,-0.020041,0.038266,0.385646,0.116000,0.548000,-10.069000
1779273699091551438,2026-05-20 16:11:39.090,-2.211000,1.359000,240.800000,-0.285200,-0.163400,0.128200,-0.023554,0.040861,0.383469,0.180000,0.640000,-10.101000
1779273699116385438,2026-05-20 16:11:39.115,-2.229000,1.433000,241.347000,-0.287900,-0.160400,0.132400,-0.020582,0.030546,0.381338,0.396000,0.474000,-10.268000
1779273699141500457,2026-05-20 16:11:39.140,-2.240000,1.482000,241.894000,-0.288700,-0.154500,0.132300,-0.015232,0.013070,0.381554,0.389000,0.398000,-10.255000
1779273699203928920,2026-05-20 16:11:39.202,-2.241000,1.541000,242.979000,-0.293400,-0.156300,0.132100,-0.009015,0.004783,0.375671,0.238000,0.480000,-10.074000
1779273699216444531,2026-05-20 16:11:39.215,-2.243000,1.563000,243.513000,-0.293300,-0.150500,0.129900,-0.013819,-0.006815,0.374475,0.372000,0.359000,-10.234000
1779273699241351457,2026-05-20 16:11:39.240,-2.243000,1.562000,244.045000,-0.297000,-0.150400,0.129700,-0.008450,-0.023235,0.371241,0.425000,0.302000,-10.179000
1779273699267043957,2026-05-20 16:11:39.265,-2.235000,1.538000,244.575000,-0.298700,-0.142500,0.132800,-0.002410,-0.033369,0.367501,0.291000,0.414000,-10.088000
1779273699291686790,2026-05-20 16:11:39.290,-2.221000,1.511000,245.103000,-0.295900,-0.144500,0.131800,0.001051,-0.032936,0.365272,0.361000,0.477000,-10.090000
1779273699316707031,2026-05-20 16:11:39.315,-2.213000,1.485000,245.631000,-0.299600,-0.139500,0.132700,-0.007330,-0.033146,0.367416,0.272000,0.469000,-10.135000
1779273699341327179,2026-05-20 16:11:39.340,-2.212000,1.453000,246.162000,-0.300100,-0.139400,0.131200,-0.007414,-0.041570,0.365425,0.388000,0.469000,-10.152000
1779273699366399401,2026-05-20 16:11:39.365,-2.205000,1.404000,246.683000,-0.300100,-0.136500,0.129000,-0.003294,-0.051730,0.363070,0.366000,0.375000,-10.132000
1779273699391479179,2026-05-20 16:11:39.390,-2.193000,1.347000,247.207000,-0.301900,-0.133500,0.132100,-0.000167,-0.053468,0.368198,0.244000,0.324000,-10.132000
1779273699416339049,2026-05-20 16:11:39.415,-2.186000,1.293000,247.735000,-0.300700,-0.121700,0.129900,-0.008038,-0.049878,0.370697,0.291000,0.348000,-10.133000
1779273699441373586,2026-05-20 16:11:39.440,-2.184000,1.242000,248.265000,-0.303600,-0.125600,0.130900,-0.008387,-0.049043,0.369828,0.241000,0.342000,-10.157000
1779273699466438420,2026-05-20 16:11:39.465,-2.184000,1.187000,248.798000,-0.303500,-0.123600,0.130900,-0.007218,-0.053884,0.373808,0.230000,0.224000,-10.172000
1779273699491580364,2026-05-20 16:11:39.490,-2.180000,1.126000,249.339000,-0.304300,-0.118700,0.132900,-0.002404,-0.057156,0.374997,0.170000,0.204000,-10.113000
1779273699516338920,2026-05-20 16:11:39.515,-2.176000,1.072000,249.879000,-0.305200,-0.115800,0.134000,-0.004452,-0.049276,0.377419,0.184000,0.403000,-10.155000
1779273699541295642,2026-05-20 16:11:39.540,-2.175000,1.027000,250.420000,-0.305100,-0.112800,0.132900,-0.007402,-0.042630,0.376393,0.162000,0.340000,-10.107000
1779273699566451160,2026-05-20 16:11:39.565,-2.180000,0.987000,250.960000,-0.307800,-0.107900,0.135900,-0.006886,-0.042567,0.377368,0.145000,0.433000,-10.198000
1779273699591455549,2026-05-20 16:11:39.590,-2.181000,0.952000,251.502000,-0.307900,-0.111800,0.134900,-0.006891,-0.037468,0.376814,0.135000,0.412000,-10.143000
1779273699616310234,2026-05-20 16:11:39.615,-2.181000,0.925000,252.048000,-0.305900,-0.104000,0.136000,-0.002650,-0.028393,0.376050,0.059000,0.472000,-10.164000
1779273699641220494,2026-05-20 16:11:39.640,-2.178000,0.912000,252.589000,-0.310500,-0.102900,0.135700,-0.009037,-0.020218,0.377107,0.102000,0.364000,-10.154000
1779273699666346883,2026-05-20 16:11:39.665,-2.183000,0.909000,253.126000,-0.314200,-0.101800,0.135500,-0.009656,-0.013960,0.376899,0.130000,0.383000,-10.141000
1779273699691395308,2026-05-20 16:11:39.690,-2.188000,0.914000,253.666000,-0.312300,-0.099900,0.137800,-0.010228,-0.006422,0.378502,0.103000,0.348000,-10.134000
1779273699716391327,2026-05-20 16:11:39.715,-2.186000,0.928000,254.205000,-0.312200,-0.095000,0.135600,-0.003306,-0.001175,0.376584,0.107000,0.301000,-10.130000
1779273699741330327,2026-05-20 16:11:39.740,-2.183000,0.951000,254.746000,-0.313100,-0.095000,0.136600,-0.006698,0.003796,0.377818,0.149000,0.446000,-10.164000
1779273699766434753,2026-05-20 16:11:39.765,-2.182000,0.981000,255.282000,-0.313000,-0.089100,0.137700,-0.006530,0.009012,0.376203,0.082000,0.325000,-10.161000
1779273699791361642,2026-05-20 16:11:39.790,-2.185000,1.019000,255.819000,-0.316700,-0.089100,0.134200,-0.007023,0.013515,0.376210,0.162000,0.434000,-10.202000
1779273699816261234,2026-05-20 16:11:39.815,-2.183000,1.062000,256.357000,-0.316600,-0.084100,0.135300,-0.006013,0.017873,0.378914,0.175000,0.311000,-10.208000
1779273699841421327,2026-05-20 16:11:39.840,-2.180000,1.108000,256.899000,-0.316500,-0.082200,0.136300,-0.002690,0.016796,0.379360,0.185000,0.460000,-10.106000
1779273699866612771,2026-05-20 16:11:39.865,-2.178000,1.156000,257.440000,-0.317300,-0.076300,0.136200,-0.009701,0.021370,0.381424,0.216000,0.329000,-10.169000
1779273699891441086,2026-05-20 16:11:39.890,-2.180000,1.208000,257.981000,-0.319200,-0.075300,0.136100,-0.006897,0.022573,0.379814,0.189000,0.372000,-10.150000
1779273699916244382,2026-05-20 16:11:39.915,-2.181000,1.261000,258.523000,-0.322000,-0.075200,0.131700,-0.011273,0.021548,0.381644,0.316000,0.313000,-10.080000
1779273699941212419,2026-05-20 16:11:39.940,-2.182000,1.309000,259.068000,-0.320800,-0.065400,0.137000,-0.006529,0.016022,0.381386,0.168000,0.329000,-10.141000
1779273699966516160,2026-05-20 16:11:39.965,-2.184000,1.355000,259.617000,-0.321700,-0.062500,0.133700,-0.011094,0.014920,0.382613,0.327000,0.463000,-10.213000
1779273699991780919,2026-05-20 16:11:39.990,-2.188000,1.395000,260.161000,-0.323600,-0.064400,0.134700,-0.012347,0.014222,0.378482,0.281000,0.361000,-10.067000
1779273700016365179,2026-05-20 16:11:40.015,-2.197000,1.434000,260.704000,-0.323400,-0.056500,0.135800,-0.014526,0.010516,0.378335,0.271000,0.452000,-10.086000
1779273700041183827,2026-05-20 16:11:40.040,-2.203000,1.465000,261.244000,-0.323400,-0.058500,0.133600,-0.014038,0.002492,0.376970,0.309000,0.300000,-10.187000
1779273700066215771,2026-05-20 16:11:40.065,-2.210000,1.485000,261.780000,-0.324200,-0.052600,0.132400,-0.012332,-0.006199,0.372426,0.331000,0.451000,-10.166000
1779273700091535901,2026-05-20 16:11:40.090,-2.216000,1.496000,262.312000,-0.324200,-0.050600,0.135700,-0.017028,-0.010094,0.371323,0.340000,0.290000,-10.175000
1779273700116274012,2026-05-20 16:11:40.115,-2.227000,1.501000,262.839000,-0.325100,-0.051600,0.133400,-0.015876,-0.013346,0.366942,0.319000,0.429000,-10.152000
1779273700141172105,2026-05-20 16:11:40.140,-2.236000,1.501000,263.358000,-0.325900,-0.045700,0.133400,-0.018500,-0.015222,0.363235,0.313000,0.303000,-10.247000
1779273700204760901,2026-05-20 16:11:40.203,-2.254000,1.477000,264.382000,-0.325800,-0.039800,0.130100,-0.016941,-0.027728,0.355975,0.286000,0.402000,-10.144000
1779273700216300067,2026-05-20 16:11:40.215,-2.266000,1.456000,264.887000,-0.326700,-0.036900,0.131100,-0.015043,-0.031247,0.351022,0.234000,0.410000,-10.168000
1779273700241259845,2026-05-20 16:11:40.240,-2.281000,1.432000,265.389000,-0.325500,-0.026100,0.135400,-0.019273,-0.030635,0.350500,0.305000,0.477000,-10.196000
1779273700266196456,2026-05-20 16:11:40.265,-2.292000,1.405000,265.893000,-0.325600,-0.030000,0.134100,-0.015446,-0.032778,0.348305,0.261000,0.336000,-10.170000
1779273700291341067,2026-05-20 16:11:40.290,-2.305000,1.372000,266.394000,-0.326300,-0.022100,0.135000,-0.015133,-0.038877,0.347645,0.287000,0.551000,-10.242000
1779273700316196827,2026-05-20 16:11:40.315,-2.317000,1.335000,266.891000,-0.328300,-0.027000,0.133900,-0.016170,-0.040358,0.348109,0.120000,0.433000,-10.215000
1779273700341158438,2026-05-20 16:11:40.340,-2.332000,1.299000,267.393000,-0.326300,-0.022100,0.136100,-0.016419,-0.039909,0.348358,0.111000,0.562000,-10.166000
1779273700366141438,2026-05-20 16:11:40.365,-2.345000,1.266000,267.900000,-0.328200,-0.021100,0.134900,-0.018181,-0.034661,0.353214,0.229000,0.566000,-10.184000
1779273700391301049,2026-05-20 16:11:40.390,-2.358000,1.236000,268.407000,-0.327100,-0.016200,0.139300,-0.015979,-0.034816,0.356090,0.218000,0.553000,-10.086000
1779273700416154697,2026-05-20 16:11:40.415,-2.369000,1.206000,268.921000,-0.327900,-0.010300,0.138100,-0.017327,-0.035748,0.358818,0.215000,0.523000,-10.176000
1779273700441128549,2026-05-20 16:11:40.440,-2.380000,1.181000,269.439000,-0.328000,-0.011300,0.136000,-0.015567,-0.030710,0.364717,0.106000,0.559000,-10.164000
1779273700466195604,2026-05-20 16:11:40.465,-2.390000,1.162000,269.963000,-0.326900,-0.006400,0.136000,-0.017052,-0.024215,0.369352,0.178000,0.465000,-10.068000
1779273700491345549,2026-05-20 16:11:40.490,-2.397000,1.148000,270.492000,-0.325900,-0.001500,0.138100,-0.012084,-0.022954,0.369116,0.106000,0.437000,-10.147000
1779273700516131586,2026-05-20 16:11:40.515,-2.403000,1.140000,271.025000,-0.325900,-0.003500,0.139200,-0.012890,-0.021874,0.373099,0.202000,0.523000,-10.169000
1779273700541140993,2026-05-20 16:11:40.540,-2.406000,1.133000,271.553000,-0.325900,-0.001600,0.134900,-0.009857,-0.016481,0.371900,0.214000,0.396000,-10.123000
1779273700566288789,2026-05-20 16:11:40.565,-2.407000,1.133000,272.091000,-0.325800,0.002400,0.138100,-0.008423,-0.012452,0.374426,0.163000,0.398000,-10.141000
1779273700591327401,2026-05-20 16:11:40.590,-2.403000,1.139000,272.624000,-0.327600,0.005400,0.135800,-0.007067,-0.009541,0.375022,0.229000,0.313000,-10.117000
1779273700616503382,2026-05-20 16:11:40.615,-2.397000,1.148000,273.158000,-0.327500,0.010300,0.137900,-0.000503,-0.007947,0.371591,0.212000,0.350000,-10.140000
1779273700641066086,2026-05-20 16:11:40.640,-2.388000,1.157000,273.683000,-0.326500,0.013200,0.138000,-0.001759,-0.005483,0.369297,0.209000,0.331000,-10.120000
1779273700666121382,2026-05-20 16:11:40.665,-2.378000,1.171000,274.209000,-0.326300,0.020000,0.136800,0.001978,-0.004660,0.365740,0.127000,0.341000,-10.099000
1779273700691446456,2026-05-20 16:11:40.690,-2.366000,1.187000,274.730000,-0.326300,0.020100,0.139000,0.001181,-0.003965,0.363000,0.198000,0.371000,-10.159000
1779273700716175067,2026-05-20 16:11:40.715,-2.351000,1.205000,275.244000,-0.327300,0.020100,0.142200,0.006329,-0.002404,0.358815,0.211000,0.358000,-10.130000
1779273700741073067,2026-05-20 16:11:40.740,-2.335000,1.221000,275.755000,-0.328000,0.028900,0.139900,0.004783,-0.003665,0.354647,0.222000,0.508000,-10.108000
1779273700766185326,2026-05-20 16:11:40.765,-2.317000,1.238000,276.262000,-0.324300,0.026900,0.138000,0.005076,-0.003563,0.353824,0.202000,0.402000,-10.113000
1779273700791290456,2026-05-20 16:11:40.790,-2.302000,1.255000,276.766000,-0.324200,0.032800,0.136800,0.004199,-0.001766,0.351766,0.232000,0.461000,-10.146000
1779273700816131308,2026-05-20 16:11:40.815,-2.286000,1.273000,277.266000,-0.326900,0.034800,0.136700,0.000158,-0.003146,0.351792,0.214000,0.345000,-10.195000
1779273700841122141,2026-05-20 16:11:40.840,-2.273000,1.288000,277.768000,-0.324200,0.033800,0.141200,0.000047,-0.004037,0.351155,0.234000,0.380000,-10.126000
1779273700866208826,2026-05-20 16:11:40.865,-2.261000,1.300000,278.267000,-0.325000,0.039700,0.140000,-0.003075,-0.006158,0.352937,0.264000,0.273000,-10.156000
1779273700891287419,2026-05-20 16:11:40.890,-2.253000,1.310000,278.768000,-0.322200,0.039600,0.143400,-0.002390,-0.007379,0.352477,0.284000,0.279000,-10.105000
1779273700916137215,2026-05-20 16:11:40.915,-2.248000,1.321000,279.274000,-0.322000,0.048400,0.140100,-0.005623,-0.006397,0.354314,0.246000,0.363000,-10.147000
1779273700941176993,2026-05-20 16:11:40.940,-2.246000,1.332000,279.787000,-0.323900,0.046500,0.140000,-0.008079,-0.008517,0.358025,0.249000,0.386000,-10.142000
1779273700966090289,2026-05-20 16:11:40.965,-2.249000,1.340000,280.298000,-0.322000,0.047400,0.140100,-0.009875,-0.011574,0.360515,0.212000,0.353000,-10.143000
1779273700991167030,2026-05-20 16:11:40.990,-2.254000,1.346000,280.818000,-0.323800,0.050400,0.138900,-0.012368,-0.011193,0.363975,0.217000,0.432000,-10.154000
1779273701016114567,2026-05-20 16:11:41.015,-2.265000,1.351000,281.340000,-0.320000,0.053300,0.141200,-0.015942,-0.009281,0.367002,0.213000,0.471000,-10.117000
1779273701041011085,2026-05-20 16:11:41.040,-2.277000,1.357000,281.865000,-0.321700,0.060200,0.142100,-0.017757,-0.011705,0.370782,0.194000,0.398000,-10.177000
1779273701066021974,2026-05-20 16:11:41.065,-2.293000,1.362000,282.394000,-0.321700,0.061200,0.141000,-0.018004,-0.014452,0.368697,0.243000,0.600000,-10.208000
1779273701091168197,2026-05-20 16:11:41.090,-2.308000,1.361000,282.923000,-0.317900,0.064100,0.143400,-0.020320,-0.014771,0.371875,0.235000,0.480000,-10.181000
1779273701116076252,2026-05-20 16:11:41.115,-2.326000,1.359000,283.457000,-0.318700,0.069000,0.147600,-0.019938,-0.016641,0.371634,0.195000,0.571000,-10.163000
1779273701141027956,2026-05-20 16:11:41.139,-2.344000,1.360000,283.991000,-0.317800,0.069000,0.141200,-0.022922,-0.015829,0.372984,0.249000,0.543000,-10.212000
1779273701204585363,2026-05-20 16:11:41.203,-2.377000,1.353000,285.052000,-0.315000,0.069900,0.141300,-0.020893,-0.023883,0.373709,0.281000,0.516000,-10.213000
1779273701216135937,2026-05-20 16:11:41.215,-2.390000,1.341000,285.580000,-0.315700,0.078700,0.143300,-0.018310,-0.023026,0.371047,0.236000,0.408000,-10.111000
1779273701241269196,2026-05-20 16:11:41.240,-2.402000,1.332000,286.109000,-0.314700,0.079700,0.140900,-0.017756,-0.020479,0.369731,0.231000,0.442000,-10.172000
1779273701266163919,2026-05-20 16:11:41.265,-2.411000,1.325000,286.635000,-0.312600,0.088500,0.139900,-0.017898,-0.022787,0.369108,0.263000,0.357000,-10.204000
1779273701291162993,2026-05-20 16:11:41.290,-2.422000,1.312000,287.161000,-0.310800,0.086500,0.145400,-0.011391,-0.026531,0.366119,0.261000,0.463000,-10.145000
1779273701316186363,2026-05-20 16:11:41.315,-2.425000,1.295000,287.681000,-0.313600,0.086500,0.143100,-0.010761,-0.026564,0.363807,0.161000,0.344000,-10.154000
1779273701341016307,2026-05-20 16:11:41.340,-2.427000,1.280000,288.199000,-0.310700,0.094300,0.143200,-0.007694,-0.024794,0.362246,0.203000,0.432000,-10.122000
1779273701366015289,2026-05-20 16:11:41.364,-2.426000,1.267000,288.716000,-0.310700,0.094300,0.142100,-0.008065,-0.024762,0.359981,0.234000,0.432000,-10.096000
1779273701391156233,2026-05-20 16:11:41.390,-2.424000,1.255000,289.227000,-0.310600,0.098200,0.138800,-0.004170,-0.023818,0.356999,0.198000,0.448000,-10.136000
1779273701416134807,2026-05-20 16:11:41.415,-2.418000,1.239000,289.737000,-0.308600,0.104100,0.142100,-0.003564,-0.025951,0.357888,0.261000,0.416000,-10.122000
1779273701440953270,2026-05-20 16:11:41.439,-2.409000,1.225000,290.245000,-0.308700,0.100200,0.141100,-0.002367,-0.022211,0.356871,0.157000,0.298000,-10.123000
1779273701466061789,2026-05-20 16:11:41.465,-2.401000,1.217000,290.754000,-0.305700,0.107000,0.145500,-0.000169,-0.018433,0.354634,0.208000,0.452000,-10.152000
1779273701491168919,2026-05-20 16:11:41.490,-2.390000,1.212000,291.256000,-0.306600,0.108000,0.143300,-0.000928,-0.017234,0.353428,0.178000,0.311000,-10.149000
1779273701516143641,2026-05-20 16:11:41.515,-2.381000,1.208000,291.761000,-0.306600,0.110900,0.144300,0.001202,-0.017133,0.351695,0.151000,0.389000,-10.158000
1779273701541070030,2026-05-20 16:11:41.540,-2.368000,1.205000,292.265000,-0.301900,0.110800,0.144600,-0.000312,-0.015139,0.351502,0.234000,0.380000,-10.142000
1779273701565954344,2026-05-20 16:11:41.564,-2.354000,1.208000,292.761000,-0.298900,0.122500,0.142500,0.004050,-0.008607,0.347156,0.203000,0.396000,-10.147000
1779273701591278937,2026-05-20 16:11:41.590,-2.342000,1.215000,293.255000,-0.301700,0.118700,0.142300,-0.001164,-0.009051,0.345792,0.208000,0.447000,-10.112000
1779273701616155011,2026-05-20 16:11:41.615,-2.332000,1.223000,293.744000,-0.298800,0.125500,0.146800,0.000632,-0.010154,0.341122,0.251000,0.479000,-10.166000
1779273701641130844,2026-05-20 16:11:41.640,-2.321000,1.234000,294.230000,-0.297900,0.122500,0.142500,-0.000825,-0.004017,0.339032,0.222000,0.455000,-10.184000
1779273701665918344,2026-05-20 16:11:41.664,-2.308000,1.249000,294.705000,-0.299800,0.124500,0.144600,0.001630,-0.000008,0.333479,0.255000,0.327000,-10.199000
1779273701691155752,2026-05-20 16:11:41.690,-2.299000,1.267000,295.178000,-0.295000,0.128400,0.143700,-0.001292,-0.001086,0.331728,0.208000,0.505000,-10.094000
1779273701716038529,2026-05-20 16:11:41.714,-2.290000,1.283000,295.653000,-0.296700,0.138200,0.144600,-0.003322,-0.003267,0.326664,0.281000,0.321000,-10.127000
1779273701740945492,2026-05-20 16:11:41.739,-2.283000,1.301000,296.117000,-0.294900,0.134200,0.141500,-0.002471,-0.000299,0.322737,0.186000,0.409000,-10.213000
1779273701765934048,2026-05-20 16:11:41.764,-2.274000,1.319000,296.572000,-0.293100,0.133200,0.141600,-0.004987,0.001311,0.317715,0.238000,0.363000,-10.161000
1779273701791406918,2026-05-20 16:11:41.790,-2.272000,1.333000,297.019000,-0.292100,0.136200,0.143800,-0.006043,-0.002093,0.314516,0.277000,0.438000,-10.131000
1779273701815981455,2026-05-20 16:11:41.814,-2.271000,1.346000,297.462000,-0.291900,0.143000,0.144800,-0.009340,-0.005968,0.308291,0.203000,0.417000,-10.138000
1779273701841026215,2026-05-20 16:11:41.839,-2.272000,1.354000,297.891000,-0.290100,0.143000,0.144900,-0.005573,-0.006974,0.299687,0.302000,0.333000,-10.210000
1779273701866136678,2026-05-20 16:11:41.864,-2.273000,1.361000,298.316000,-0.287200,0.144900,0.145000,-0.010406,-0.005117,0.294775,0.255000,0.387000,-10.150000
1779273701891310307,2026-05-20 16:11:41.890,-2.276000,1.375000,298.732000,-0.287100,0.149800,0.147100,-0.010036,0.000030,0.289603,0.224000,0.417000,-10.106000
1779273701915983363,2026-05-20 16:11:41.914,-2.280000,1.405000,299.135000,-0.287200,0.146900,0.143900,-0.009941,0.014476,0.278083,0.295000,0.431000,-10.144000
1779273701940926529,2026-05-20 16:11:41.939,-2.284000,1.452000,299.525000,-0.285200,0.151700,0.147200,-0.011538,0.025579,0.274801,0.271000,0.339000,-10.185000
1779273701966006011,2026-05-20 16:11:41.964,-2.290000,1.505000,299.908000,-0.284300,0.150700,0.140800,-0.010655,0.026749,0.266081,0.354000,0.487000,-10.091000
1779273701991130900,2026-05-20 16:11:41.990,-2.291000,1.564000,300.281000,-0.285200,0.150700,0.139700,-0.007689,0.027728,0.262556,0.355000,0.400000,-10.090000
1779273702015937733,2026-05-20 16:11:42.014,-2.291000,1.630000,300.641000,-0.282400,0.154600,0.144100,-0.007156,0.038010,0.253429,0.358000,0.345000,-10.195000
1779273702040969789,2026-05-20 16:11:42.039,-2.291000,1.703000,301.000000,-0.284200,0.157600,0.145100,-0.007489,0.047772,0.250467,0.384000,0.444000,-10.116000
1779273702065935566,2026-05-20 16:11:42.064,-2.293000,1.781000,301.349000,-0.281300,0.160500,0.143000,-0.008705,0.040292,0.244599,0.437000,0.419000,-10.107000
1779273702091117992,2026-05-20 16:11:42.090,-2.292000,1.862000,301.683000,-0.282300,0.159500,0.140800,-0.004299,0.041865,0.232915,0.678000,0.240000,-10.265000
1779273702115873140,2026-05-20 16:11:42.114,-2.289000,1.944000,302.005000,-0.281300,0.161500,0.147300,-0.002661,0.057350,0.219180,0.495000,0.361000,-10.148000
1779273702140939492,2026-05-20 16:11:42.139,-2.284000,2.042000,302.311000,-0.278300,0.170200,0.143100,-0.003244,0.067846,0.210818,0.403000,0.386000,-9.984000
1779273702204326770,2026-05-20 16:11:42.203,-2.273000,2.324000,302.842000,-0.278400,0.164300,0.144200,-0.002694,0.106603,0.174834,1.119000,0.537000,-10.134000
1779273702215926881,2026-05-20 16:11:42.214,-2.262000,2.500000,303.064000,-0.280300,0.163400,0.136600,0.004849,0.133657,0.152511,0.646000,0.403000,-9.950000
1779273702240921696,2026-05-20 16:11:42.239,-2.252000,2.704000,303.256000,-0.279300,0.167300,0.143100,0.000779,0.140462,0.136528,0.867000,0.443000,-10.039000
1779273702266065900,2026-05-20 16:11:42.264,-2.245000,2.926000,303.426000,-0.281200,0.167300,0.143000,-0.000704,0.144319,0.125089,1.111000,0.440000,-10.213000
1779273702291450566,2026-05-20 16:11:42.290,-2.241000,3.142000,303.581000,-0.280200,0.166300,0.141900,-0.004378,0.147043,0.109211,1.336000,0.451000,-10.160000
1779273702316011974,2026-05-20 16:11:42.314,-2.236000,3.347000,303.716000,-0.281100,0.168300,0.139700,0.000058,0.144125,0.097047,0.910000,0.325000,-10.048000
1779273702341167159,2026-05-20 16:11:42.340,-2.232000,3.549000,303.841000,-0.282100,0.167300,0.136400,-0.004396,0.130957,0.095118,1.431000,0.378000,-10.007000
1779273702365844696,2026-05-20 16:11:42.364,-2.235000,3.744000,303.956000,-0.282000,0.173200,0.138500,-0.008745,0.122970,0.086137,1.348000,0.426000,-10.271000
1779273702391228381,2026-05-20 16:11:42.389,-2.239000,3.912000,304.070000,-0.282000,0.172200,0.136400,-0.009185,0.112245,0.081559,1.369000,0.377000,-10.162000
1779273702415824955,2026-05-20 16:11:42.414,-2.251000,4.049000,304.176000,-0.280100,0.173200,0.136500,-0.014683,0.084630,0.076447,1.385000,0.566000,-9.971000
1779273702440918085,2026-05-20 16:11:42.439,-2.261000,4.163000,304.273000,-0.281900,0.176100,0.133100,-0.011877,0.061196,0.071138,1.373000,0.401000,-10.120000
1779273702465852436,2026-05-20 16:11:42.464,-2.275000,4.246000,304.359000,-0.283800,0.174200,0.136300,-0.014528,0.046428,0.062449,1.678000,0.318000,-10.274000
1779273702490983677,2026-05-20 16:11:42.489,-2.298000,4.286000,304.437000,-0.282800,0.175200,0.132000,-0.022180,0.020779,0.055776,1.457000,0.554000,-10.063000
1779273702515884029,2026-05-20 16:11:42.514,-2.318000,4.291000,304.508000,-0.282800,0.176200,0.132000,-0.016025,-0.010323,0.050747,1.369000,0.353000,-10.017000
1779273702540943307,2026-05-20 16:11:42.539,-2.338000,4.278000,304.574000,-0.280900,0.180100,0.133100,-0.018447,-0.019347,0.046224,1.807000,0.155000,-10.206000
1779273702565938344,2026-05-20 16:11:42.564,-2.363000,4.249000,304.638000,-0.281000,0.174200,0.129900,-0.020826,-0.019418,0.040581,1.297000,0.396000,-10.082000
1779273702590988399,2026-05-20 16:11:42.589,-2.388000,4.208000,304.694000,-0.279000,0.179000,0.133200,-0.018673,-0.032874,0.040451,1.301000,0.445000,-10.014000
1779273702615848733,2026-05-20 16:11:42.614,-2.413000,4.150000,304.740000,-0.279100,0.174100,0.137600,-0.019984,-0.051884,0.036091,1.744000,0.265000,-10.214000
1779273702640782436,2026-05-20 16:11:42.639,-2.435000,4.076000,304.786000,-0.278100,0.180000,0.136500,-0.015233,-0.053190,0.031626,1.220000,0.237000,-10.180000
1779273702665834936,2026-05-20 16:11:42.664,-2.451000,4.001000,304.834000,-0.281000,0.176100,0.136400,-0.013945,-0.045563,0.032334,1.372000,0.396000,-10.013000
1779273702690970122,2026-05-20 16:11:42.689,-2.466000,3.938000,304.878000,-0.277200,0.179000,0.135500,-0.013278,-0.043872,0.029916,1.322000,0.577000,-9.987000
1779273702715890084,2026-05-20 16:11:42.714,-2.477000,3.884000,304.921000,-0.279000,0.179100,0.138600,-0.007724,-0.039933,0.033406,1.340000,0.457000,-10.038000
1779273702740810640,2026-05-20 16:11:42.739,-2.485000,3.827000,304.968000,-0.279200,0.173200,0.140800,-0.007479,-0.041331,0.035375,1.554000,0.573000,-10.168000
1779273702765868825,2026-05-20 16:11:42.764,-2.485000,3.777000,305.012000,-0.279000,0.178100,0.137600,0.000191,-0.032131,0.032086,0.941000,0.329000,-10.025000
1779273702791068881,2026-05-20 16:11:42.789,-2.477000,3.746000,305.054000,-0.279000,0.179000,0.135400,0.005295,-0.016408,0.027288,1.429000,0.400000,-10.015000
1779273702815877084,2026-05-20 16:11:42.814,-2.470000,3.730000,305.099000,-0.277100,0.180000,0.135500,0.003217,-0.009028,0.029349,1.187000,0.498000,-10.042000
1779273702840798658,2026-05-20 16:11:42.839,-2.459000,3.726000,305.143000,-0.277300,0.175100,0.136600,0.007713,-0.002108,0.033971,1.252000,0.431000,-10.080000
1779273702865996362,2026-05-20 16:11:42.864,-2.442000,3.732000,305.188000,-0.277300,0.175100,0.133400,0.009909,0.005057,0.029291,1.285000,0.417000,-10.058000
1779273702891166436,2026-05-20 16:11:42.889,-2.418000,3.747000,305.227000,-0.279000,0.180000,0.135400,0.015104,0.014236,0.031696,1.242000,0.442000,-10.040000
1779273702915768936,2026-05-20 16:11:42.914,-2.395000,3.774000,305.268000,-0.279000,0.180000,0.136500,0.012663,0.020343,0.031410,1.234000,0.577000,-10.101000
1779273702940695695,2026-05-20 16:11:42.939,-2.375000,3.814000,305.311000,-0.278000,0.182000,0.131100,0.011845,0.028708,0.033271,1.173000,0.364000,-10.040000
1779273702965818695,2026-05-20 16:11:42.964,-2.354000,3.863000,305.352000,-0.277200,0.178000,0.130100,0.011999,0.035806,0.033796,1.409000,0.347000,-10.032000
1779273702991651232,2026-05-20 16:11:42.989,-2.330000,3.920000,305.397000,-0.278100,0.180000,0.134300,0.014278,0.042132,0.033962,1.232000,0.499000,-10.011000
1779273703015911158,2026-05-20 16:11:43.014,-2.311000,3.988000,305.444000,-0.278100,0.180000,0.136500,0.011325,0.047589,0.035502,1.318000,0.367000,-9.985000
1779273703042232844,2026-05-20 16:11:43.039,-2.297000,4.062000,305.489000,-0.278100,0.181000,0.135400,0.003940,0.051135,0.033444,1.489000,0.371000,-10.171000
1779273703065819584,2026-05-20 16:11:43.064,-2.284000,4.142000,305.529000,-0.279000,0.178100,0.134300,0.007624,0.054513,0.032873,1.198000,0.305000,-9.950000
1779273703091232177,2026-05-20 16:11:43.089,-2.274000,4.225000,305.573000,-0.277000,0.184900,0.136500,0.004667,0.054787,0.035374,1.663000,0.402000,-10.096000
1779273703115849029,2026-05-20 16:11:43.114,-2.266000,4.310000,305.614000,-0.279000,0.180000,0.134300,0.004506,0.058471,0.033020,1.186000,0.368000,-10.071000
1779273703140689029,2026-05-20 16:11:43.139,-2.262000,4.392000,305.650000,-0.278000,0.180900,0.131900,-0.002130,0.051592,0.028345,1.498000,0.453000,-10.047000
1779273703204381436,2026-05-20 16:11:43.203,-2.264000,4.555000,305.715000,-0.278000,0.180900,0.134100,-0.003160,0.056150,0.027190,1.208000,0.265000,-9.977000
1779273703215860121,2026-05-20 16:11:43.214,-2.267000,4.636000,305.742000,-0.277900,0.182900,0.129700,-0.004874,0.052920,0.020425,1.666000,0.508000,-10.157000
1779273703241669899,2026-05-20 16:11:43.240,-2.271000,4.713000,305.767000,-0.278800,0.184900,0.131800,-0.003955,0.051725,0.020663,1.776000,0.493000,-9.899000
1779273703265764529,2026-05-20 16:11:43.264,-2.278000,4.783000,305.789000,-0.277000,0.180900,0.128700,-0.008018,0.045579,0.019976,0.939000,0.221000,-10.140000
1779273703291849751,2026-05-20 16:11:43.290,-2.285000,4.845000,305.808000,-0.279800,0.180000,0.131800,-0.006278,0.038377,0.016686,1.850000,0.424000,-10.200000
1779273703315816084,2026-05-20 16:11:43.314,-2.290000,4.900000,305.825000,-0.277900,0.181900,0.131900,-0.003819,0.033909,0.016667,1.475000,0.476000,-9.915000
1779273703341643769,2026-05-20 16:11:43.340,-2.294000,4.946000,305.839000,-0.280800,0.177100,0.135000,-0.002190,0.026438,0.013723,1.338000,0.321000,-10.040000
1779273703365707103,2026-05-20 16:11:43.364,-2.296000,4.972000,305.850000,-0.278000,0.178000,0.134100,-0.002704,0.010632,0.012944,1.599000,0.578000,-10.274000
1779273703391910436,2026-05-20 16:11:43.390,-2.298000,4.973000,305.864000,-0.279700,0.184900,0.133900,-0.000429,-0.007083,0.012375,1.385000,0.342000,-10.010000
1779273703415812047,2026-05-20 16:11:43.414,-2.296000,4.951000,305.877000,-0.280800,0.180000,0.132900,0.001156,-0.024200,0.008238,1.245000,0.459000,-10.098000
1779273703440650603,2026-05-20 16:11:43.439,-2.288000,4.907000,305.890000,-0.278900,0.181000,0.145900,0.004258,-0.036285,0.010169,1.527000,0.365000,-10.294000
1779273703465708677,2026-05-20 16:11:43.464,-2.282000,4.844000,305.898000,-0.280800,0.181000,0.131800,0.006126,-0.050823,0.009049,1.013000,0.351000,-9.927000
1779273703490851325,2026-05-20 16:11:43.489,-2.276000,4.761000,305.910000,-0.279900,0.179000,0.130700,0.002748,-0.068788,0.006836,1.500000,0.468000,-10.092000
1779273703515644584,2026-05-20 16:11:43.514,-2.268000,4.657000,305.922000,-0.277000,0.183800,0.127600,0.005694,-0.075510,0.008372,1.031000,0.314000,-10.319000
1779273703541577343,2026-05-20 16:11:43.540,-2.260000,4.531000,305.939000,-0.277000,0.180900,0.133000,0.004436,-0.093517,0.009694,1.046000,0.494000,-10.095000
1779273703565712547,2026-05-20 16:11:43.564,-2.250000,4.390000,305.949000,-0.276000,0.183800,0.130900,0.006541,-0.111130,0.008152,1.151000,0.302000,-10.145000
1779273703591817862,2026-05-20 16:11:43.590,-2.243000,4.236000,305.963000,-0.275100,0.183800,0.135300,0.002502,-0.111938,0.005470,1.088000,0.328000,-10.154000
1779273703615589158,2026-05-20 16:11:43.614,-2.238000,4.076000,305.973000,-0.276100,0.179900,0.137400,0.002479,-0.105416,0.005009,0.684000,0.312000,-10.051000
1779273703641623380,2026-05-20 16:11:43.640,-2.236000,3.920000,305.982000,-0.272400,0.180800,0.131100,0.000907,-0.113999,0.001859,0.788000,0.446000,-10.136000
1779273703665547121,2026-05-20 16:11:43.664,-2.234000,3.764000,305.987000,-0.274100,0.189700,0.135300,0.000791,-0.111717,0.000972,0.742000,0.241000,-10.245000
1779273703691799232,2026-05-20 16:11:43.690,-2.234000,3.606000,305.986000,-0.270500,0.180800,0.137700,-0.003063,-0.105091,-0.003628,0.756000,0.402000,-10.140000
1779273703715646973,2026-05-20 16:11:43.714,-2.236000,3.455000,305.984000,-0.272300,0.185700,0.136500,0.000411,-0.100265,-0.005020,0.611000,0.437000,-10.076000
1779273703741603084,2026-05-20 16:11:43.740,-2.241000,3.322000,305.979000,-0.272300,0.184700,0.137600,-0.004446,-0.090153,-0.007792,0.655000,0.328000,-10.241000
1779273703765709084,2026-05-20 16:11:43.764,-2.246000,3.207000,305.967000,-0.271300,0.187700,0.138700,-0.003878,-0.072679,-0.012358,0.434000,0.368000,-10.147000
1779273703791835047,2026-05-20 16:11:43.790,-2.251000,3.106000,305.948000,-0.271500,0.178900,0.139800,-0.004380,-0.063933,-0.017172,0.450000,0.352000,-10.035000
1779273703815586232,2026-05-20 16:11:43.814,-2.258000,3.022000,305.922000,-0.271500,0.180800,0.138700,-0.000858,-0.057095,-0.019062,0.437000,0.394000,-10.126000
1779273703841568028,2026-05-20 16:11:43.840,-2.264000,2.960000,305.894000,-0.272400,0.179900,0.141900,-0.003813,-0.036675,-0.020342,0.692000,0.471000,-10.105000
1779273703865613065,2026-05-20 16:11:43.864,-2.267000,2.913000,305.859000,-0.270500,0.183800,0.144200,0.000189,-0.024518,-0.024356,0.229000,0.308000,-10.091000
1779273703891868250,2026-05-20 16:11:43.890,-2.269000,2.889000,305.824000,-0.271500,0.180800,0.140900,-0.000135,-0.010487,-0.024690,0.493000,0.268000,-10.240000
1779273703915638306,2026-05-20 16:11:43.914,-2.272000,2.882000,305.787000,-0.272300,0.182800,0.133200,0.000112,0.001416,-0.027113,0.403000,0.477000,-10.214000
1779273703941574658,2026-05-20 16:11:43.940,-2.273000,2.891000,305.749000,-0.270600,0.178800,0.138800,0.000832,0.012364,-0.023875,0.431000,0.364000,-10.140000
1779273703965551454,2026-05-20 16:11:43.964,-2.273000,2.911000,305.706000,-0.273400,0.178900,0.138600,-0.000098,0.016245,-0.026191,0.481000,0.239000,-10.198000
1779273703991827991,2026-05-20 16:11:43.990,-2.270000,2.942000,305.667000,-0.272300,0.184800,0.139700,0.004298,0.026878,-0.024243,0.390000,0.358000,-10.112000
1779273704016569380,2026-05-20 16:11:44.015,-2.268000,2.985000,305.631000,-0.270500,0.182700,0.136600,0.001889,0.033834,-0.025454,0.725000,0.456000,-10.071000
1779273704041762602,2026-05-20 16:11:44.040,-2.267000,3.039000,305.588000,-0.273200,0.185700,0.138600,0.001399,0.039847,-0.025501,0.387000,0.296000,-10.240000
1779273704065524324,2026-05-20 16:11:44.064,-2.267000,3.098000,305.549000,-0.273400,0.178900,0.139700,0.001548,0.045778,-0.023624,0.578000,0.321000,-10.213000
1779273704091907047,2026-05-20 16:11:44.090,-2.268000,3.159000,305.513000,-0.273300,0.179900,0.136500,0.002236,0.041545,-0.025712,0.640000,0.378000,-10.132000
1779273704116615028,2026-05-20 16:11:44.115,-2.267000,3.216000,305.473000,-0.272400,0.182800,0.137600,0.004453,0.039045,-0.025294,0.541000,0.199000,-10.130000
1779273704141683454,2026-05-20 16:11:44.140,-2.266000,3.264000,305.433000,-0.273400,0.178900,0.140800,-0.001388,0.034108,-0.025547,0.799000,0.220000,-10.180000
1779273704204058547,2026-05-20 16:11:44.202,-2.268000,3.345000,305.353000,-0.273400,0.178900,0.136500,0.001941,0.023505,-0.024868,0.834000,0.444000,-10.062000
1779273704216670935,2026-05-20 16:11:44.215,-2.269000,3.379000,305.310000,-0.275200,0.177900,0.136400,-0.001083,0.024051,-0.031188,0.658000,0.324000,-10.208000
1779273704241474584,2026-05-20 16:11:44.240,-2.268000,3.400000,305.268000,-0.273200,0.185700,0.136400,0.004070,0.013103,-0.031795,0.556000,0.341000,-10.151000
1779273704266539602,2026-05-20 16:11:44.265,-2.269000,3.407000,305.219000,-0.275300,0.175000,0.137500,0.003576,-0.001319,-0.035131,0.922000,0.417000,-10.173000
1779273704292220676,2026-05-20 16:11:44.290,-2.269000,3.399000,305.170000,-0.275200,0.180900,0.140700,0.004977,-0.008866,-0.033788,0.501000,0.191000,-10.264000
1779273704316612435,2026-05-20 16:11:44.315,-2.265000,3.372000,305.117000,-0.276200,0.178900,0.138500,0.003403,-0.015712,-0.035094,0.791000,0.094000,-10.128000
1779273704341496583,2026-05-20 16:11:44.340,-2.263000,3.338000,305.062000,-0.275300,0.176000,0.136400,0.001400,-0.025614,-0.039747,0.579000,0.342000,-9.985000
1779273704366530954,2026-05-20 16:11:44.365,-2.262000,3.305000,305.005000,-0.274300,0.177000,0.140800,0.001277,-0.024795,-0.036580,0.586000,0.353000,-10.089000
1779273704391702935,2026-05-20 16:11:44.390,-2.262000,3.267000,304.947000,-0.276200,0.178000,0.137400,0.000969,-0.023756,-0.039228,0.810000,0.401000,-10.063000
1779273704416571713,2026-05-20 16:11:44.415,-2.258000,3.219000,304.885000,-0.276200,0.177000,0.141800,0.006448,-0.034137,-0.042794,0.433000,0.450000,-10.012000
1779273704441463546,2026-05-20 16:11:44.440,-2.252000,3.164000,304.827000,-0.274300,0.177900,0.139700,0.006886,-0.043855,-0.044114,0.823000,0.569000,-10.158000
1779273704466540565,2026-05-20 16:11:44.465,-2.247000,3.101000,304.764000,-0.276200,0.177000,0.139600,0.004896,-0.040252,-0.047126,0.524000,0.321000,-10.116000
1779273704491889306,2026-05-20 16:11:44.490,-2.243000,3.037000,304.699000,-0.276200,0.175000,0.141800,0.007001,-0.039270,-0.046549,0.476000,0.273000,-10.128000
1779273704516595639,2026-05-20 16:11:44.515,-2.243000,2.978000,304.636000,-0.276100,0.179900,0.142800,0.004673,-0.041469,-0.048453,0.557000,0.418000,-10.281000
1779273704541462824,2026-05-20 16:11:44.540,-2.240000,2.925000,304.572000,-0.278900,0.179000,0.140500,0.006848,-0.034254,-0.045844,0.440000,0.162000,-10.316000
1779273704566537954,2026-05-20 16:11:44.565,-2.239000,2.871000,304.509000,-0.273400,0.177900,0.145200,-0.000001,-0.032145,-0.046410,0.588000,0.135000,-10.235000
1779273704591717694,2026-05-20 16:11:44.590,-2.240000,2.816000,304.447000,-0.274400,0.174000,0.138600,0.000245,-0.039144,-0.045316,0.342000,0.127000,-10.245000
1779273704616601028,2026-05-20 16:11:44.615,-2.242000,2.768000,304.383000,-0.275300,0.175000,0.137500,0.000080,-0.030227,-0.040423,0.473000,0.224000,-10.340000
1779273704641419898,2026-05-20 16:11:44.640,-2.242000,2.730000,304.317000,-0.275400,0.173000,0.139700,-0.001913,-0.017111,-0.042690,0.461000,0.193000,-10.158000
1779273704666411972,2026-05-20 16:11:44.665,-2.241000,2.702000,304.251000,-0.276300,0.172100,0.140700,0.001862,-0.013895,-0.047222,0.211000,0.275000,-10.053000
1779273704691610065,2026-05-20 16:11:44.690,-2.244000,2.687000,304.186000,-0.274300,0.177000,0.142900,-0.002710,-0.010883,-0.045162,0.628000,0.442000,-10.172000
1779273704716520528,2026-05-20 16:11:44.715,-2.248000,2.676000,304.118000,-0.274400,0.172000,0.138700,-0.001739,-0.003224,-0.046244,0.431000,0.338000,-10.148000
1779273704741409028,2026-05-20 16:11:44.740,-2.248000,2.665000,304.048000,-0.277200,0.174100,0.142800,0.002291,0.000990,-0.048185,0.377000,0.395000,-9.998000
1779273704766485102,2026-05-20 16:11:44.765,-2.248000,2.668000,303.978000,-0.277100,0.177000,0.140600,0.001290,0.002073,-0.049389,0.457000,0.555000,-10.106000
1779273704791669324,2026-05-20 16:11:44.790,-2.247000,2.684000,303.906000,-0.277300,0.171100,0.135300,0.003113,0.018280,-0.048727,0.400000,0.364000,-10.132000
1779273704816546713,2026-05-20 16:11:44.815,-2.247000,2.706000,303.832000,-0.278200,0.172100,0.138500,0.000541,0.021142,-0.050918,0.615000,0.319000,-10.098000
1779273704841432231,2026-05-20 16:11:44.840,-2.247000,2.729000,303.755000,-0.278200,0.170200,0.140600,0.005178,0.015043,-0.050968,0.344000,0.335000,-10.152000
1779273704866519954,2026-05-20 16:11:44.865,-2.243000,2.754000,303.686000,-0.277200,0.174100,0.140700,0.007550,0.017661,-0.044011,0.501000,0.294000,-10.269000
1779273704891631416,2026-05-20 16:11:44.890,-2.238000,2.781000,303.615000,-0.279200,0.168200,0.139500,0.003021,0.027232,-0.048750,0.533000,0.335000,-10.169000
1779273704916567916,2026-05-20 16:11:44.915,-2.233000,2.815000,303.545000,-0.280100,0.169200,0.140600,0.006277,0.028192,-0.051440,0.251000,0.299000,-10.207000
1779273704941531342,2026-05-20 16:11:44.940,-2.232000,2.855000,303.474000,-0.281000,0.169200,0.137300,0.001892,0.026791,-0.048242,0.658000,0.265000,-10.343000
1779273704966419250,2026-05-20 16:11:44.965,-2.230000,2.887000,303.403000,-0.279200,0.169200,0.142800,0.003875,0.023774,-0.046501,0.468000,0.275000,-10.238000
1779273704991553898,2026-05-20 16:11:44.990,-2.222000,2.908000,303.332000,-0.278200,0.170200,0.140600,0.009827,0.016380,-0.047938,0.348000,0.200000,-10.076000
1779273705016518305,2026-05-20 16:11:45.015,-2.215000,2.927000,303.262000,-0.280900,0.175100,0.141500,0.005347,0.011504,-0.049303,0.661000,0.315000,-10.161000
1779273705041482879,2026-05-20 16:11:45.040,-2.211000,2.946000,303.190000,-0.281000,0.171200,0.140500,0.003721,0.018501,-0.050622,0.436000,0.308000,-10.063000
1779273705066433046,2026-05-20 16:11:45.065,-2.207000,2.965000,303.114000,-0.281000,0.168200,0.135100,0.002647,0.020199,-0.048506,0.511000,0.226000,-10.057000
1779273705091547509,2026-05-20 16:11:45.090,-2.206000,2.985000,303.038000,-0.279200,0.166200,0.137400,0.003608,0.010152,-0.050170,0.635000,0.448000,-10.008000
1779273705116516324,2026-05-20 16:11:45.115,-2.202000,3.000000,302.963000,-0.279200,0.166200,0.138500,0.005456,0.009003,-0.048866,0.550000,0.364000,-10.138000
1779273705141387805,2026-05-20 16:11:45.140,-2.198000,2.999000,302.888000,-0.281000,0.171200,0.138300,0.000830,0.000596,-0.051009,0.713000,0.376000,-10.052000
1779273705204807435,2026-05-20 16:11:45.203,-2.194000,2.988000,302.738000,-0.281100,0.166300,0.136200,0.003535,-0.001583,-0.050218,0.537000,0.321000,-10.202000
1779273705216734879,2026-05-20 16:11:45.215,-2.194000,2.988000,302.664000,-0.282900,0.169300,0.136100,-0.000294,0.006245,-0.049700,0.690000,0.236000,-10.128000
1779273705241538879,2026-05-20 16:11:45.240,-2.196000,2.985000,302.591000,-0.282900,0.167300,0.138300,0.003837,0.000252,-0.051150,0.237000,0.226000,-10.113000
1779273705266741842,2026-05-20 16:11:45.265,-2.198000,2.979000,302.522000,-0.281900,0.169200,0.137200,-0.000140,-0.009797,-0.048110,0.643000,0.344000,-10.310000
1779273705291596953,2026-05-20 16:11:45.290,-2.200000,2.969000,302.449000,-0.283800,0.169300,0.138200,-0.001407,-0.001909,-0.050375,0.505000,0.276000,-10.242000
1779273705316468175,2026-05-20 16:11:45.315,-2.201000,2.953000,302.380000,-0.281100,0.166300,0.141600,0.000344,-0.002926,-0.046965,0.194000,0.170000,-10.112000
1779273705341369083,2026-05-20 16:11:45.340,-2.203000,2.947000,302.314000,-0.283800,0.168300,0.139300,-0.000409,-0.005455,-0.043918,0.628000,0.251000,-10.299000
1779273705366325675,2026-05-20 16:11:45.365,-2.208000,2.948000,302.247000,-0.282100,0.161400,0.139400,-0.002774,0.005299,-0.042506,0.422000,0.304000,-10.272000
1779273705391482675,2026-05-20 16:11:45.390,-2.210000,2.948000,302.182000,-0.282100,0.162400,0.138300,-0.000136,0.009180,-0.042399,0.289000,0.140000,-10.065000
1779273705416386712,2026-05-20 16:11:45.415,-2.216000,2.952000,302.118000,-0.283900,0.162400,0.139300,-0.003293,-0.000846,-0.044467,0.627000,0.427000,-10.124000
1779273705441384194,2026-05-20 16:11:45.440,-2.218000,2.958000,302.054000,-0.283000,0.162400,0.138300,-0.001579,0.005068,-0.041712,0.410000,0.271000,-10.151000
1779273705466383101,2026-05-20 16:11:45.465,-2.220000,2.961000,301.990000,-0.285700,0.165400,0.136000,-0.001148,0.011295,-0.039225,0.569000,0.323000,-10.035000
1779273705491467268,2026-05-20 16:11:45.490,-2.224000,2.970000,301.928000,-0.282000,0.167300,0.140500,-0.000848,0.005723,-0.044359,0.378000,0.479000,-10.016000
1779273705516373768,2026-05-20 16:11:45.515,-2.227000,2.987000,301.866000,-0.283000,0.165300,0.138300,0.002518,0.012196,-0.041498,0.507000,0.491000,-10.170000
1779273705541381472,2026-05-20 16:11:45.540,-2.226000,3.005000,301.802000,-0.284800,0.164400,0.137100,-0.001312,0.020885,-0.041941,0.717000,0.275000,-10.042000
1779273705566482712,2026-05-20 16:11:45.565,-2.225000,3.022000,301.742000,-0.284800,0.166400,0.139200,0.008383,0.011312,-0.045841,0.344000,0.319000,-10.107000
1779273705591536805,2026-05-20 16:11:45.590,-2.223000,3.036000,301.681000,-0.284900,0.161400,0.138200,0.003575,0.004935,-0.039456,0.701000,0.385000,-10.339000
1779273705616282972,2026-05-20 16:11:45.615,-2.219000,3.041000,301.617000,-0.284900,0.161400,0.137100,0.003474,0.008367,-0.040342,0.440000,0.209000,-10.188000
1779273705641369657,2026-05-20 16:11:45.640,-2.213000,3.044000,301.557000,-0.285800,0.161500,0.137100,0.008181,0.006980,-0.040130,0.305000,0.246000,-10.168000
1779273705666271823,2026-05-20 16:11:45.665,-2.207000,3.057000,301.497000,-0.285800,0.160500,0.139200,0.005477,0.007385,-0.040913,0.658000,0.361000,-10.299000
1779273705691717786,2026-05-20 16:11:45.690,-2.204000,3.076000,301.436000,-0.285900,0.159500,0.141400,0.001572,0.019633,-0.038160,0.340000,0.194000,-10.261000
1779273705716374897,2026-05-20 16:11:45.715,-2.201000,3.090000,301.379000,-0.286800,0.160500,0.138100,0.003327,0.015518,-0.035848,0.617000,0.127000,-10.212000
1779273705741392416,2026-05-20 16:11:45.740,-2.197000,3.099000,301.322000,-0.285800,0.161500,0.139200,0.005243,0.000200,-0.039838,0.457000,0.371000,-10.212000
1779273705766309934,2026-05-20 16:11:45.765,-2.188000,3.103000,301.267000,-0.288700,0.159600,0.138000,0.005837,0.005724,-0.035373,0.527000,0.213000,-10.213000
1779273705791460379,2026-05-20 16:11:45.790,-2.183000,3.106000,301.211000,-0.284000,0.158500,0.137200,0.001604,0.010652,-0.040283,0.614000,0.326000,-10.014000
1779273705816254953,2026-05-20 16:11:45.815,-2.179000,3.115000,301.155000,-0.284900,0.163400,0.138200,0.004367,0.007896,-0.040839,0.311000,0.264000,-10.019000
1779273705841450712,2026-05-20 16:11:45.840,-2.178000,3.131000,301.096000,-0.284900,0.160500,0.135000,0.003275,0.007256,-0.039116,0.850000,0.355000,-10.155000
1779273705866404990,2026-05-20 16:11:45.865,-2.176000,3.141000,301.036000,-0.288700,0.155600,0.134800,0.000615,0.011988,-0.040528,0.479000,0.362000,-10.033000
1779273705891432008,2026-05-20 16:11:45.890,-2.173000,3.144000,300.976000,-0.287700,0.160500,0.133700,0.005645,0.001403,-0.039521,0.539000,0.408000,-9.960000
1779273705916267786,2026-05-20 16:11:45.915,-2.173000,3.147000,300.915000,-0.286800,0.157600,0.136000,0.001347,-0.002307,-0.043067,0.690000,0.484000,-10.118000
1779273705941386934,2026-05-20 16:11:45.940,-2.172000,3.151000,300.853000,-0.285900,0.159500,0.136000,0.003360,0.007779,-0.042030,0.486000,0.353000,-10.102000
1779273705966349564,2026-05-20 16:11:45.965,-2.172000,3.154000,300.793000,-0.287800,0.158600,0.137000,-0.001996,0.004013,-0.038436,0.701000,0.257000,-9.921000
1779273705991434675,2026-05-20 16:11:45.990,-2.176000,3.156000,300.737000,-0.288600,0.160500,0.131500,0.002513,-0.003736,-0.044301,0.474000,0.287000,-10.205000
1779273706016243157,2026-05-20 16:11:46.015,-2.177000,3.156000,300.680000,-0.289600,0.160500,0.135800,0.001700,-0.000350,-0.038770,0.677000,0.356000,-10.299000
1779273706041317027,2026-05-20 16:11:46.040,-2.180000,3.147000,300.623000,-0.287700,0.160500,0.138100,-0.003560,-0.001622,-0.040885,0.457000,0.310000,-10.098000
1779273706066328786,2026-05-20 16:11:46.065,-2.186000,3.141000,300.567000,-0.289600,0.159600,0.135800,-0.000076,-0.003108,-0.038353,0.345000,0.328000,-10.258000
1779273706091736564,2026-05-20 16:11:46.090,-2.191000,3.137000,300.511000,-0.288800,0.154700,0.137000,-0.001294,-0.002250,-0.040456,0.684000,0.389000,-10.331000
1779273706116205156,2026-05-20 16:11:46.115,-2.195000,3.129000,300.451000,-0.287800,0.156600,0.138100,-0.002633,-0.001081,-0.041078,0.295000,0.271000,-10.257000
1779273706141162212,2026-05-20 16:11:46.140,-2.200000,3.119000,300.394000,-0.288700,0.157600,0.142400,-0.002179,-0.003165,-0.038171,0.489000,0.170000,-10.278000
1779273706204828360,2026-05-20 16:11:46.203,-2.215000,3.103000,300.277000,-0.288800,0.153700,0.138100,-0.002812,-0.001803,-0.038191,0.423000,0.173000,-10.226000
1779273706216280138,2026-05-20 16:11:46.215,-2.218000,3.092000,300.220000,-0.287800,0.157600,0.133800,-0.002577,-0.003443,-0.039191,0.645000,0.308000,-10.161000
1779273706241206064,2026-05-20 16:11:46.240,-2.223000,3.082000,300.168000,-0.287900,0.151700,0.136000,-0.002994,-0.005685,-0.041886,0.330000,0.314000,-10.058000
1779273706266294768,2026-05-20 16:11:46.265,-2.227000,3.076000,300.109000,-0.287800,0.156600,0.134900,-0.001684,-0.002597,-0.038910,0.680000,0.409000,-10.127000
1779273706291545730,2026-05-20 16:11:46.290,-2.230000,3.073000,300.049000,-0.290600,0.153700,0.135800,-0.002972,0.003234,-0.039507,0.475000,0.327000,-10.078000
1779273706316226675,2026-05-20 16:11:46.315,-2.231000,3.074000,299.998000,-0.290600,0.155700,0.135800,0.001224,0.002998,-0.035696,0.426000,0.301000,-10.017000
1779273706341202360,2026-05-20 16:11:46.340,-2.232000,3.077000,299.940000,-0.291500,0.156700,0.135700,-0.000421,0.000605,-0.035912,0.776000,0.488000,-10.113000
1779273706366231712,2026-05-20 16:11:46.365,-2.230000,3.081000,299.886000,-0.290600,0.154700,0.139100,0.003299,0.007012,-0.038350,0.407000,0.390000,-10.048000
1779273706391771212,2026-05-20 16:11:46.390,-2.228000,3.082000,299.832000,-0.290600,0.153700,0.133600,0.001720,0.006816,-0.035595,0.578000,0.291000,-9.995000
1779273706416209490,2026-05-20 16:11:46.415,-2.227000,3.088000,299.779000,-0.290700,0.152700,0.133700,0.001927,0.000305,-0.038601,0.421000,0.445000,-10.163000
1779273706441150490,2026-05-20 16:11:46.440,-2.225000,3.088000,299.733000,-0.292500,0.155700,0.135700,0.003076,-0.003388,-0.029078,0.566000,0.369000,-10.234000
1779273706466335193,2026-05-20 16:11:46.465,-2.221000,3.062000,299.693000,-0.292400,0.157700,0.134600,0.003107,-0.021827,-0.024866,0.466000,0.158000,-10.240000
1779273706491618786,2026-05-20 16:11:46.490,-2.218000,3.008000,299.667000,-0.293400,0.153800,0.137800,0.001691,-0.050797,-0.017752,0.436000,0.407000,-10.247000
1779273706516144656,2026-05-20 16:11:46.515,-2.213000,2.927000,299.647000,-0.289700,0.153700,0.139100,0.001229,-0.064845,-0.011449,0.436000,0.391000,-10.255000
1779273706541114749,2026-05-20 16:11:46.540,-2.211000,2.819000,299.639000,-0.291500,0.155700,0.142200,-0.000107,-0.075944,-0.003715,0.248000,0.377000,-10.240000
1779273706566389601,2026-05-20 16:11:46.565,-2.212000,2.694000,299.647000,-0.290500,0.158600,0.140100,-0.002083,-0.094939,0.006897,0.152000,0.405000,-10.163000
1779273706591542286,2026-05-20 16:11:46.590,-2.215000,2.553000,299.662000,-0.289700,0.154700,0.142300,-0.003875,-0.108942,0.012287,0.352000,0.436000,-10.277000
1779273706616141878,2026-05-20 16:11:46.615,-2.220000,2.387000,299.689000,-0.286900,0.154600,0.141400,-0.006656,-0.120686,0.018702,0.229000,0.386000,-10.195000
1779273706641171434,2026-05-20 16:11:46.640,-2.227000,2.199000,299.730000,-0.291600,0.150800,0.136900,-0.005446,-0.138028,0.025775,0.081000,0.310000,-10.071000
1779273706666332156,2026-05-20 16:11:46.665,-2.236000,2.005000,299.777000,-0.287000,0.150700,0.142500,-0.008864,-0.139862,0.030491,0.096000,0.399000,-10.140000
1779273706691407138,2026-05-20 16:11:46.690,-2.248000,1.812000,299.830000,-0.285000,0.156600,0.143700,-0.011296,-0.132384,0.036402,0.038000,0.302000,-10.101000
1779273706716142749,2026-05-20 16:11:46.715,-2.262000,1.622000,299.893000,-0.286000,0.152700,0.145800,-0.014001,-0.133059,0.041670,-0.132000,0.332000,-10.137000
1779273706741177730,2026-05-20 16:11:46.740,-2.278000,1.431000,299.965000,-0.284100,0.155600,0.145900,-0.012039,-0.138689,0.048705,-0.282000,0.513000,-10.149000
1779273706766223675,2026-05-20 16:11:46.765,-2.290000,1.241000,300.046000,-0.282300,0.153600,0.146000,-0.008618,-0.133872,0.051244,-0.073000,0.403000,-10.238000
1779273706791255989,2026-05-20 16:11:46.790,-2.304000,1.050000,300.140000,-0.280400,0.155500,0.148200,-0.012301,-0.129923,0.063056,-0.393000,0.484000,-10.166000
1779273706816134841,2026-05-20 16:11:46.815,-2.321000,0.868000,300.243000,-0.281400,0.149700,0.151500,-0.013532,-0.126579,0.069344,-0.399000,0.465000,-10.161000
1779273706841144471,2026-05-20 16:11:46.840,-2.340000,0.700000,300.356000,-0.279500,0.151600,0.150500,-0.012308,-0.115949,0.075602,-0.286000,0.649000,-10.324000
1779273706866412323,2026-05-20 16:11:46.865,-2.355000,0.548000,300.466000,-0.279500,0.155500,0.149400,-0.010610,-0.101234,0.078256,-0.416000,0.408000,-10.168000
1779273706891359545,2026-05-20 16:11:46.890,-2.368000,0.418000,300.591000,-0.276700,0.155500,0.152700,-0.009063,-0.084548,0.079389,-0.516000,0.492000,-10.163000
1779273706916093175,2026-05-20 16:11:46.915,-2.384000,0.315000,300.717000,-0.277700,0.150600,0.149500,-0.012560,-0.067635,0.089757,-0.489000,0.506000,-10.180000
1779273706941076100,2026-05-20 16:11:46.940,-2.398000,0.243000,300.843000,-0.274800,0.156400,0.155000,-0.009769,-0.050159,0.082497,-0.384000,0.405000,-10.216000
1779273706966154675,2026-05-20 16:11:46.965,-2.411000,0.192000,300.972000,-0.272900,0.156400,0.151900,-0.009339,-0.031419,0.087272,-0.371000,0.554000,-10.130000
1779273706991275452,2026-05-20 16:11:46.990,-2.422000,0.160000,301.105000,-0.275700,0.157400,0.151700,-0.009134,-0.017279,0.095836,-0.520000,0.498000,-10.006000
1779273707017123156,2026-05-20 16:11:47.015,-2.430000,0.152000,301.239000,-0.272800,0.162200,0.149600,-0.004064,-0.006548,0.096086,-0.338000,0.380000,-10.058000
1779273707041124952,2026-05-20 16:11:47.040,-2.439000,0.159000,301.376000,-0.274700,0.159300,0.150600,-0.006864,0.002538,0.099484,-0.273000,0.416000,-10.233000
1779273707066051137,2026-05-20 16:11:47.065,-2.445000,0.169000,301.527000,-0.272800,0.160300,0.154000,-0.005108,0.005914,0.110225,-0.598000,0.228000,-10.118000
1779273707091467137,2026-05-20 16:11:47.090,-2.450000,0.181000,301.685000,-0.274700,0.161300,0.148500,-0.000599,0.002830,0.112332,0.101000,0.288000,-10.281000
1779273707116115193,2026-05-20 16:11:47.115,-2.450000,0.192000,301.850000,-0.271900,0.163200,0.150800,0.001977,0.000926,0.115726,-0.099000,0.539000,-9.980000
1779273707141064360,2026-05-20 16:11:47.140,-2.451000,0.188000,302.024000,-0.271800,0.164200,0.149700,-0.004759,-0.015016,0.123057,-0.694000,0.345000,-10.272000
1779273707204745285,2026-05-20 16:11:47.203,-2.461000,0.094000,302.433000,-0.270900,0.165200,0.154000,0.003587,-0.060015,0.163684,-0.355000,-0.119000,-9.759000
1779273707216119952,2026-05-20 16:11:47.215,-2.463000,-0.009000,302.674000,-0.269900,0.166100,0.153000,-0.000896,-0.088069,0.164588,-1.109000,0.931000,-10.187000
1779273707241052767,2026-05-20 16:11:47.240,-2.463000,-0.144000,302.946000,-0.269000,0.164100,0.153100,-0.001199,-0.107484,0.194302,-0.393000,0.216000,-10.224000
1779273707266041804,2026-05-20 16:11:47.265,-2.449000,-0.286000,303.232000,-0.267100,0.169000,0.157400,0.014845,-0.103967,0.197406,-1.047000,1.018000,-9.700000
1779273707291327063,2026-05-20 16:11:47.290,-2.432000,-0.411000,303.526000,-0.263300,0.169900,0.159800,0.018504,-0.090886,0.193945,-0.794000,0.276000,-10.362000
1779273707316078489,2026-05-20 16:11:47.315,-2.412000,-0.525000,303.828000,-0.262400,0.169900,0.159800,0.009872,-0.086547,0.219922,-1.001000,0.341000,-10.192000
1779273707341023693,2026-05-20 16:11:47.339,-2.389000,-0.634000,304.142000,-0.260400,0.175800,0.158800,0.021031,-0.081930,0.215332,-0.750000,0.418000,-10.120000
1779273707366079989,2026-05-20 16:11:47.364,-2.356000,-0.720000,304.453000,-0.260400,0.176700,0.156600,0.029489,-0.057589,0.214016,-1.091000,0.526000,-10.214000
1779273707391513822,2026-05-20 16:11:47.390,-2.324000,-0.777000,304.776000,-0.261400,0.173800,0.156600,0.018368,-0.044563,0.229410,-0.711000,0.288000,-10.182000
1779273707416059063,2026-05-20 16:11:47.414,-2.295000,-0.817000,305.112000,-0.258500,0.179700,0.158900,0.023424,-0.031815,0.234026,-0.814000,0.603000,-10.111000
1779273707440990415,2026-05-20 16:11:47.439,-2.266000,-0.838000,305.452000,-0.255700,0.181600,0.159000,0.025560,-0.013533,0.234821,-0.877000,0.530000,-10.146000
1779273707466106582,2026-05-20 16:11:47.465,-2.235000,-0.828000,305.782000,-0.256600,0.181600,0.157900,0.023151,0.009823,0.234291,-0.956000,0.435000,-10.064000
1779273707491344637,2026-05-20 16:11:47.490,-2.215000,-0.784000,306.129000,-0.254700,0.180600,0.154700,0.015637,0.031794,0.245294,-1.062000,0.588000,-9.966000
1779273707516038267,2026-05-20 16:11:47.514,-2.194000,-0.708000,306.476000,-0.253800,0.181500,0.160200,0.019561,0.054976,0.236841,-0.822000,0.690000,-10.182000
1779273707540938396,2026-05-20 16:11:47.539,-2.168000,-0.605000,306.810000,-0.252800,0.186400,0.155900,0.021253,0.073069,0.234482,-0.907000,0.577000,-10.176000
1779273707566010989,2026-05-20 16:11:47.564,-2.151000,-0.479000,307.150000,-0.252600,0.192300,0.149300,0.007895,0.086978,0.242704,-0.782000,0.418000,-10.166000
1779273707591249267,2026-05-20 16:11:47.590,-2.145000,-0.327000,307.493000,-0.250900,0.184400,0.154900,0.004221,0.106218,0.243997,-0.852000,0.833000,-10.077000
1779273707616012674,2026-05-20 16:11:47.614,-2.140000,-0.146000,307.834000,-0.252600,0.192300,0.155800,0.003598,0.124110,0.237997,-0.720000,0.559000,-10.140000
1779273707640914433,2026-05-20 16:11:47.639,-2.138000,0.042000,308.178000,-0.252500,0.198200,0.154700,0.000701,0.126478,0.241014,-0.573000,0.551000,-10.195000
1779273707665948544,2026-05-20 16:11:47.664,-2.144000,0.237000,308.529000,-0.251700,0.194200,0.154800,-0.008891,0.130100,0.245554,-0.495000,0.488000,-10.027000
1779273707691778693,2026-05-20 16:11:47.690,-2.153000,0.450000,308.873000,-0.252600,0.195200,0.153600,-0.007796,0.143062,0.241428,-0.205000,0.350000,-9.918000
1779273707716126174,2026-05-20 16:11:47.715,-2.165000,0.673000,309.209000,-0.249700,0.197100,0.160300,-0.010739,0.147209,0.242593,-0.232000,0.291000,-10.211000
1779273707740930304,2026-05-20 16:11:47.739,-2.183000,0.881000,309.552000,-0.250700,0.197100,0.153700,-0.020522,0.131686,0.243396,-0.112000,0.567000,-10.092000
1779273707765963341,2026-05-20 16:11:47.764,-2.198000,1.074000,309.895000,-0.248700,0.200000,0.148400,-0.009836,0.123608,0.240310,0.001000,0.655000,-10.041000
1779273707791235878,2026-05-20 16:11:47.790,-2.207000,1.262000,310.228000,-0.248700,0.201000,0.150500,-0.010206,0.121603,0.238796,-0.181000,0.674000,-9.985000
1779273707816046100,2026-05-20 16:11:47.814,-2.212000,1.434000,310.569000,-0.248600,0.205900,0.151600,-0.010056,0.103982,0.245405,-0.284000,0.339000,-10.144000
1779273707840991081,2026-05-20 16:11:47.839,-2.221000,1.552000,310.937000,-0.248700,0.202000,0.146200,-0.011180,0.054352,0.261225,0.089000,0.368000,-10.360000
1779273707866063192,2026-05-20 16:11:47.864,-2.219000,1.611000,311.309000,-0.245000,0.200900,0.145300,-0.002451,0.017454,0.261619,0.034000,0.088000,-10.189000
1779273707891138896,2026-05-20 16:11:47.890,-2.204000,1.638000,311.675000,-0.244900,0.206800,0.150700,0.001225,0.006012,0.260527,0.012000,0.446000,-10.029000
1779273707915978526,2026-05-20 16:11:47.914,-2.195000,1.650000,312.055000,-0.243800,0.213700,0.169100,-0.004530,-0.007280,0.267265,0.189000,0.579000,-10.178000
1779273707940914063,2026-05-20 16:11:47.939,-2.190000,1.630000,312.448000,-0.243000,0.208800,0.150800,-0.001314,-0.036444,0.272191,0.073000,0.567000,-10.193000
1779273707965934822,2026-05-20 16:11:47.964,-2.172000,1.569000,312.833000,-0.242000,0.210700,0.149700,0.011628,-0.065143,0.266133,0.121000,0.620000,-10.322000
1779273707991054970,2026-05-20 16:11:47.989,-2.140000,1.476000,313.219000,-0.238200,0.213600,0.147700,0.016112,-0.079389,0.271653,0.041000,0.521000,-10.129000
1779273708016040766,2026-05-20 16:11:48.014,-2.118000,1.376000,313.622000,-0.236300,0.217500,0.154300,0.007187,-0.076925,0.277851,-0.112000,0.450000,-10.053000
1779273708040923341,2026-05-20 16:11:48.039,-2.101000,1.281000,314.024000,-0.234600,0.210600,0.175000,0.004951,-0.078061,0.274233,0.080000,0.481000,-10.160000
1779273708065950341,2026-05-20 16:11:48.064,-2.081000,1.170000,314.421000,-0.230800,0.214400,0.151300,0.010621,-0.095164,0.275535,0.164000,0.244000,-10.251000
1779273708091298526,2026-05-20 16:11:48.089,-2.060000,1.037000,314.829000,-0.231700,0.214500,0.168600,0.008627,-0.102895,0.284173,-0.334000,0.335000,-10.254000
1779273708116049322,2026-05-20 16:11:48.114,-2.040000,0.912000,315.245000,-0.227800,0.221200,0.153600,0.007725,-0.088152,0.286275,-0.284000,0.223000,-10.170000
1779273708140911600,2026-05-20 16:11:48.139,-2.024000,0.819000,315.656000,-0.227800,0.222200,0.152500,0.002796,-0.069423,0.284272,0.084000,0.461000,-10.062000
1779273708204341822,2026-05-20 16:11:48.203,-2.017000,0.660000,316.498000,-0.222100,0.227000,0.152700,-0.001128,-0.060139,0.297176,-0.256000,0.185000,-10.299000
1779273708216003026,2026-05-20 16:11:48.214,-2.011000,0.618000,316.930000,-0.219300,0.229000,0.174500,0.001586,-0.020467,0.296605,-0.345000,0.403000,-10.111000
1779273708240945748,2026-05-20 16:11:48.239,-2.010000,0.634000,317.359000,-0.220200,0.230900,0.152800,-0.008249,0.014535,0.305840,-0.263000,0.370000,-9.897000
1779273708266201266,2026-05-20 16:11:48.265,-2.027000,0.682000,317.798000,-0.218300,0.229900,0.152900,-0.019625,0.021313,0.310375,0.138000,0.188000,-10.302000
1779273708290945914,2026-05-20 16:11:48.289,-2.049000,0.738000,318.245000,-0.214600,0.230800,0.153100,-0.015018,0.031875,0.313225,-0.027000,0.416000,-10.223000
1779273708316051174,2026-05-20 16:11:48.314,-2.059000,0.809000,318.697000,-0.213500,0.237600,0.152000,-0.011497,0.048524,0.318228,-0.123000,0.210000,-9.923000
1779273708340847507,2026-05-20 16:11:48.339,-2.072000,0.913000,319.156000,-0.213400,0.241500,0.153100,-0.017544,0.070611,0.325684,-0.006000,0.366000,-10.148000
1779273708365828192,2026-05-20 16:11:48.364,-2.099000,1.042000,319.624000,-0.211600,0.241500,0.149900,-0.026479,0.081959,0.327837,0.179000,0.432000,-10.184000
1779273708390953100,2026-05-20 16:11:48.389,-2.128000,1.171000,320.092000,-0.209700,0.241500,0.152200,-0.025781,0.076708,0.333018,0.121000,0.331000,-10.181000
1779273708415984692,2026-05-20 16:11:48.414,-2.148000,1.291000,320.567000,-0.208800,0.240500,0.151100,-0.019259,0.069747,0.336639,0.190000,0.198000,-10.173000
1779273708440926377,2026-05-20 16:11:48.439,-2.163000,1.410000,321.051000,-0.207900,0.242400,0.153300,-0.018063,0.073609,0.345337,0.202000,0.327000,-10.134000
1779273708465900174,2026-05-20 16:11:48.464,-2.178000,1.538000,321.538000,-0.205000,0.243300,0.151300,-0.020443,0.076024,0.341821,0.289000,0.522000,-10.083000
1779273708491000785,2026-05-20 16:11:48.489,-2.196000,1.655000,322.025000,-0.203300,0.240400,0.146000,-0.022156,0.062956,0.340620,0.433000,0.467000,-10.265000
1779273708516017396,2026-05-20 16:11:48.514,-2.212000,1.742000,322.516000,-0.200300,0.249100,0.151500,-0.020430,0.040100,0.350482,0.384000,0.344000,-10.135000
1779273708540786822,2026-05-20 16:11:48.539,-2.216000,1.812000,323.012000,-0.199300,0.250100,0.148300,-0.010448,0.032945,0.349231,0.434000,0.279000,-10.165000
1779273708566195507,2026-05-20 16:11:48.565,-2.211000,1.880000,323.513000,-0.196500,0.252100,0.165700,-0.008043,0.033765,0.351944,0.494000,0.467000,-10.078000
1779273708591368211,2026-05-20 16:11:48.589,-2.211000,1.936000,324.012000,-0.193700,0.253900,0.147500,-0.014433,0.017349,0.352621,0.428000,0.415000,-10.172000
1779273708615851266,2026-05-20 16:11:48.614,-2.216000,1.964000,324.520000,-0.191900,0.251000,0.168200,-0.012854,-0.001741,0.356317,0.536000,0.471000,-10.284000
