Timestamp,Time,Roll,Pitch,Yaw,Velocity_Increment_X,Velocity_Increment_Y,Velocity_Increment_Z,Acceleration_X,Acceleration_Y,Acceleration_Z,Angular_Rate_X,Angular_Rate_Y,Angular_Rate_Z,Magnetic_Field_X,Magnetic_Field_Y,Magnetic_Field_Z,Pressure
1779273690491999518,2026-05-20 16:11:30.489,0.034380,3.162128,70.129616,0.109414,-0.021959,0.969793,1.576575,0.156393,9.832238,-0.020397,-0.004742,-0.250056,-0.000042,0.456569,-0.870694,98948.0000
1779273690590458314,2026-05-20 16:11:30.589,0.087903,3.362831,71.610893,0.106056,-0.027749,0.971086,1.265896,-0.060211,9.641161,-0.021336,-0.039830,-0.262453,-0.014989,0.458263,-0.870354,98956.0000
1779273690689962425,2026-05-20 16:11:30.688,0.115364,3.760523,73.144485,0.115256,-0.034134,0.972951,2.021541,-1.388592,10.172466,-0.025047,-0.080081,-0.269535,-0.028690,0.460632,-0.867663,98953.0000
1779273690790868332,2026-05-20 16:11:30.789,0.097483,4.064221,74.693733,0.132929,-0.036359,0.976855,0.984101,-0.426493,9.430656,-0.007966,-0.031787,-0.281078,-0.043930,0.461448,-0.866696,98945.0000
1779273690890435443,2026-05-20 16:11:30.888,0.042469,4.003368,76.230461,0.133901,-0.037309,0.976737,1.662406,-0.687186,10.109627,-0.009178,0.053011,-0.269220,-0.057416,0.458679,-0.866586,98953.0000
1779273690990123943,2026-05-20 16:11:30.988,-0.029948,3.532123,77.730309,0.111656,-0.033836,0.975017,1.310760,-0.833888,9.994834,-0.003886,0.113150,-0.258824,-0.066048,0.461051,-0.864924,98947.0000
1779273691091015554,2026-05-20 16:11:31.089,-0.083176,2.757451,79.158310,0.079178,-0.029773,0.978693,0.443257,-0.621308,9.797134,0.006800,0.160639,-0.239286,-0.073253,0.460673,-0.865931,98951.0000
1779273691190632480,2026-05-20 16:11:31.189,-0.083443,1.945366,80.492294,0.035581,-0.024418,0.977986,1.314601,-0.700241,9.854153,-0.013556,0.122338,-0.219166,-0.079848,0.459433,-0.866034,98957.0000
1779273691290740128,2026-05-20 16:11:31.289,-0.055688,1.236260,81.706108,-0.004182,-0.023553,0.981873,-0.506452,-0.598830,9.469774,-0.002491,0.103473,-0.205089,-0.085837,0.461155,-0.866822,98948.0000
1779273691390060758,2026-05-20 16:11:31.388,-0.009381,0.667106,82.828613,-0.013988,-0.023890,0.988661,-0.259668,-0.445214,9.923503,-0.003155,0.102522,-0.197817,-0.090309,0.459973,-0.865480,98949.0000
1779273691490664739,2026-05-20 16:11:31.489,0.051194,0.183768,83.864662,-0.037951,-0.021544,0.983307,-0.194196,-0.023181,10.028015,-0.012257,0.073300,-0.169155,-0.096863,0.459094,-0.863493,98952.0000
1779273691590466498,2026-05-20 16:11:31.589,0.098042,-0.275675,84.789696,-0.039964,-0.020808,0.982729,-0.810881,0.184307,9.781155,-0.018374,0.077521,-0.158101,-0.100194,0.458127,-0.865184,98952.0000
1779273691691898110,2026-05-20 16:11:31.690,0.118754,-0.838239,85.665413,-0.050022,-0.021547,0.982960,-0.035104,-1.141006,9.825893,0.024081,0.118023,-0.168387,-0.104390,0.456911,-0.865049,98945.0000
1779273691791057721,2026-05-20 16:11:31.789,0.126075,-1.604868,86.617096,-0.077758,-0.018041,0.976422,-1.532175,-0.088610,9.248093,-0.005594,0.127121,-0.172512,-0.108331,0.457393,-0.867959,98952.0000
1779273691890763702,2026-05-20 16:11:31.889,0.079930,-2.232027,87.661255,-0.119971,-0.023414,0.970337,-1.321744,-0.004262,9.613595,0.015505,0.035426,-0.157684,-0.113439,0.454088,-0.867750,98952.0000
1779273691990702424,2026-05-20 16:11:31.989,-0.015561,-2.181536,88.617691,-0.121358,-0.014634,0.967622,-0.488229,-0.026046,10.167367,0.014347,-0.075624,-0.158138,-0.119460,0.452518,-0.869058,98959.0000
1779273692090549813,2026-05-20 16:11:32.089,-0.077845,-1.512614,89.471405,-0.099852,-0.007609,0.965066,-0.762393,-0.413671,9.400268,0.018721,-0.163454,-0.136483,-0.131726,0.452442,-0.868745,98951.0000
1779273692190878517,2026-05-20 16:11:32.189,-0.094711,-0.508426,90.259186,-0.058294,-0.005006,0.967649,0.148606,0.121596,9.785089,0.006325,-0.177446,-0.122321,-0.143095,0.447954,-0.866848,98949.0000
1779273692292511591,2026-05-20 16:11:32.291,-0.071514,0.472072,90.994148,-0.019131,-0.007006,0.967025,-0.133578,-0.410781,9.588516,-0.008023,-0.156040,-0.120856,-0.156519,0.448818,-0.864728,98951.0000
1779273692390251609,2026-05-20 16:11:32.388,-0.028077,1.156261,91.650330,0.017128,-0.009385,0.975344,-0.042159,-0.324073,9.606474,-0.003339,-0.082212,-0.118112,-0.164572,0.446451,-0.862367,98951.0000
1779273692490943350,2026-05-20 16:11:32.489,-0.018457,1.406375,92.238792,0.027788,-0.013831,0.982494,0.034487,-0.188418,9.532477,-0.002702,-0.017891,-0.100661,-0.170875,0.447558,-0.863733,98951.0000
1779273692590514868,2026-05-20 16:11:32.589,-0.046732,1.284104,92.745331,0.025088,-0.014423,0.987894,-0.045297,-0.163623,9.951869,0.010093,0.044952,-0.088340,-0.175352,0.445781,-0.862377,98958.0000
1779273692690388424,2026-05-20 16:11:32.689,-0.091789,0.972745,93.180580,0.009460,-0.007303,0.987734,-0.125469,0.242202,9.679576,0.018120,0.065490,-0.092055,-0.175373,0.445158,-0.863261,98953.0000
1779273692789620016,2026-05-20 16:11:32.788,-0.124634,0.664291,93.634537,-0.004108,-0.002635,0.983975,-0.161655,0.453500,9.639591,0.005467,0.044149,-0.088505,-0.177503,0.443910,-0.864677,98955.0000
1779273692890804201,2026-05-20 16:11:32.889,-0.120701,0.487451,94.165749,-0.006588,0.000832,0.978783,-0.011838,0.547962,9.795247,-0.002255,0.029367,-0.095114,-0.180822,0.442077,-0.865448,98953.0000
1779273692990584072,2026-05-20 16:11:32.989,-0.085332,0.449173,94.799866,-0.002234,-0.000775,0.975934,-0.334535,0.150740,9.600525,-0.010548,0.010070,-0.119276,-0.185299,0.441184,-0.864413,98949.0000
1779273693091843035,2026-05-20 16:11:33.090,-0.032268,0.494725,95.493523,0.006344,-0.005118,0.974106,0.141297,-0.242754,9.790433,-0.016761,-0.000454,-0.125420,-0.191014,0.439039,-0.865116,98951.0000
1779273693191598386,2026-05-20 16:11:33.190,0.023542,0.537756,96.175026,0.012082,-0.008404,0.975743,0.137807,-0.159324,9.770900,-0.004066,0.002198,-0.117700,-0.196999,0.438705,-0.864955,98949.0000
1779273693290690590,2026-05-20 16:11:33.289,0.057855,0.520281,96.853424,0.013995,-0.009370,0.979096,0.305728,-0.108346,9.885386,-0.004187,0.006245,-0.117049,-0.201484,0.434853,-0.863250,98954.0000
1779273693390609923,2026-05-20 16:11:33.389,0.065743,0.445621,97.527306,0.010243,-0.011292,0.980750,0.303698,-0.049570,9.959017,0.006944,0.019387,-0.115294,-0.207467,0.433049,-0.862454,98957.0000
1779273693490022442,2026-05-20 16:11:33.488,0.036698,0.364430,98.187805,0.004522,-0.011465,0.981590,0.191479,-0.141030,9.880525,0.008199,0.014866,-0.112218,-0.212877,0.432683,-0.863508,98953.0000
1779273693590985997,2026-05-20 16:11:33.589,-0.022680,0.320605,98.812126,-0.003235,-0.009132,0.979792,0.090948,-0.106481,9.818562,0.012274,0.002511,-0.105716,-0.216805,0.429358,-0.864227,98955.0000
1779273693690428534,2026-05-20 16:11:33.689,-0.081209,0.364193,99.404938,-0.004358,-0.004568,0.977458,-0.079094,0.007233,9.758203,0.012475,-0.015318,-0.096275,-0.220110,0.428725,-0.864728,98948.0000
1779273693790253145,2026-05-20 16:11:33.788,-0.121330,0.484317,99.977867,-0.000423,-0.003154,0.976794,0.138075,-0.053487,9.841654,-0.001057,-0.020070,-0.099759,-0.226401,0.424845,-0.863575,98951.0000
1779273693890174386,2026-05-20 16:11:33.888,-0.131597,0.640203,100.557770,0.005225,-0.003402,0.974747,-0.004791,-0.230603,9.724216,-0.002127,-0.029551,-0.102987,-0.231815,0.424767,-0.864935,98946.0000
1779273693990920701,2026-05-20 16:11:33.989,-0.116492,0.776791,101.165367,0.012715,-0.002995,0.976363,0.170315,-0.179747,9.708666,-0.000723,-0.019644,-0.106981,-0.237451,0.421864,-0.861123,98957.0000
1779273694090683664,2026-05-20 16:11:34.089,-0.081604,0.843952,101.805214,0.018773,-0.003899,0.978171,0.140675,0.004713,9.743846,-0.004297,-0.005374,-0.108957,-0.241966,0.419437,-0.861550,98953.0000
1779273694191708886,2026-05-20 16:11:34.190,-0.031175,0.811167,102.457207,0.020866,-0.004185,0.980582,0.086166,0.045520,9.774701,-0.016264,0.015821,-0.116295,-0.246458,0.420284,-0.862056,98947.0000
1779273694290852349,2026-05-20 16:11:34.289,0.012594,0.694330,103.105469,0.017376,-0.008601,0.981344,0.100262,-0.151209,9.781572,-0.010559,0.024829,-0.115528,-0.251248,0.416423,-0.860642,98949.0000
1779273694390711238,2026-05-20 16:11:34.389,0.035602,0.534141,103.753563,0.013032,-0.009925,0.980953,0.120657,-0.151497,9.785442,-0.005015,0.027754,-0.113327,-0.254293,0.413374,-0.862291,98952.0000
1779273694490531645,2026-05-20 16:11:34.489,0.037279,0.364985,104.397942,0.007176,-0.010136,0.979767,0.049345,-0.190817,9.820343,0.002769,0.019796,-0.112694,-0.257008,0.411554,-0.862778,98953.0000
1779273694590006756,2026-05-20 16:11:34.588,0.021031,0.243107,105.039810,0.001193,-0.008684,0.977833,-0.012964,0.018906,9.808957,0.003943,0.011497,-0.112656,-0.263305,0.409432,-0.862567,98954.0000
1779273694690567256,2026-05-20 16:11:34.689,0.000085,0.211809,105.673439,-0.003008,-0.007174,0.976415,0.001683,0.048419,9.806779,0.006513,-0.006400,-0.111602,-0.265763,0.405486,-0.864509,98954.0000
1779273694790452867,2026-05-20 16:11:34.789,-0.020703,0.274973,106.295486,-0.003369,-0.006229,0.976270,0.044891,0.021681,9.785266,0.009739,-0.021142,-0.108118,-0.271739,0.403989,-0.863421,98951.0000
1779273694890310737,2026-05-20 16:11:34.888,-0.028579,0.406707,106.887383,0.000350,-0.006225,0.977009,0.116304,-0.002508,9.800706,-0.003021,-0.028928,-0.103640,-0.277130,0.400411,-0.862298,98945.0000
1779273694990900404,2026-05-20 16:11:34.989,-0.025617,0.555980,107.450287,0.006817,-0.006482,0.978589,0.154595,-0.067367,9.811144,-0.000856,-0.025709,-0.098827,-0.279812,0.400413,-0.861630,98951.0000
1779273695090511126,2026-05-20 16:11:35.089,-0.024482,0.664532,107.990005,0.013130,-0.007111,0.979217,0.187060,-0.090915,9.801882,0.005344,-0.014318,-0.090879,-0.285790,0.397734,-0.860214,98949.0000
1779273695190574219,2026-05-20 16:11:35.189,-0.026955,0.708274,108.518524,0.017156,-0.006935,0.979576,0.165975,-0.069803,9.783184,-0.000340,-0.000103,-0.089258,-0.290620,0.396162,-0.861853,98947.0000
1779273695289997367,2026-05-20 16:11:35.288,-0.027368,0.731584,109.071266,0.016953,-0.005047,0.977864,0.021752,0.108208,9.702420,0.002893,-0.009050,-0.101168,-0.292702,0.392930,-0.859924,98954.0000
1779273695390952015,2026-05-20 16:11:35.389,-0.019869,0.902119,109.689537,0.020625,-0.005704,0.974778,0.191638,0.013577,9.688018,-0.006073,-0.052978,-0.113379,-0.299593,0.390516,-0.859390,98955.0000
1779273695490779792,2026-05-20 16:11:35.489,-0.005361,1.288315,110.356239,0.035355,-0.007425,0.975413,0.343803,-0.164026,9.799121,0.000045,-0.074457,-0.113925,-0.305901,0.386608,-0.859136,98955.0000
1779273695590307348,2026-05-20 16:11:35.589,0.012410,1.804230,111.052597,0.054825,-0.007116,0.972709,0.814573,-0.303924,9.768066,-0.001555,-0.101606,-0.118524,-0.312999,0.384634,-0.853810,98951.0000
1779273695691708422,2026-05-20 16:11:35.690,0.019629,2.531060,111.653755,0.080131,-0.011845,0.971692,0.870968,-0.743044,9.500398,-0.002602,-0.150499,-0.091419,-0.322257,0.381953,-0.851711,98950.0000
1779273695790719144,2026-05-20 16:11:35.789,0.015850,3.274383,112.137856,0.117082,-0.007880,0.975484,1.169609,-0.100180,9.591623,0.005512,-0.114390,-0.079193,-0.329993,0.379028,-0.848144,98947.0000
1779273695890586829,2026-05-20 16:11:35.889,-0.002259,3.764424,112.556320,0.145432,-0.007742,0.976778,1.285371,-0.089958,9.674335,-0.009146,-0.051675,-0.075351,-0.334744,0.376699,-0.845268,98948.0000
1779273695990053866,2026-05-20 16:11:35.988,-0.024290,3.888418,112.924683,0.149540,-0.010146,0.975005,1.516273,0.115879,9.681786,-0.002651,-0.003528,-0.064707,-0.338952,0.374581,-0.845410,98950.0000
1779273696090849607,2026-05-20 16:11:36.089,-0.043218,3.725110,113.234619,0.142714,-0.006484,0.973617,1.440746,0.181275,9.704633,0.003803,0.042364,-0.049660,-0.340751,0.372208,-0.844708,98948.0000
1779273696190745514,2026-05-20 16:11:36.189,-0.049465,3.498884,113.496254,0.120653,-0.004456,0.971396,1.103133,0.175962,9.657949,-0.003823,0.050262,-0.041034,-0.339573,0.371890,-0.845630,98946.0000
1779273696290335570,2026-05-20 16:11:36.289,-0.048114,3.211802,113.715981,0.101685,-0.005605,0.972932,1.451326,-0.032699,9.770609,-0.005603,0.053481,-0.036006,-0.338108,0.371557,-0.847159,98950.0000
1779273696390123292,2026-05-20 16:11:36.388,-0.050596,2.866960,113.900848,0.081853,-0.006006,0.975066,0.930223,0.087719,9.950234,0.003265,0.055899,-0.025531,-0.339686,0.369943,-0.850979,98947.0000
1779273696490767310,2026-05-20 16:11:36.489,-0.052320,2.552066,114.052452,0.062046,-0.004882,0.976321,-0.028631,-0.047363,9.595887,0.004739,0.058902,-0.017958,-0.338482,0.370257,-0.850717,98955.0000
1779273696590564755,2026-05-20 16:11:36.589,-0.050736,2.317434,114.154358,0.049577,-0.001339,0.979656,0.393246,0.083193,9.871416,-0.004724,0.037796,-0.014539,-0.337615,0.369036,-0.851909,98952.0000
1779273696691948495,2026-05-20 16:11:36.690,-0.038454,2.198404,114.199860,0.038931,-0.003010,0.979714,0.498953,0.084173,9.936975,0.004473,0.011508,-0.001093,-0.338851,0.368966,-0.853976,98949.0000
1779273696791259903,2026-05-20 16:11:36.789,-0.021745,2.156636,114.197968,0.044404,-0.002145,0.980902,0.779682,0.049143,9.831058,-0.003131,-0.002547,0.009936,-0.337318,0.368740,-0.851910,98953.0000
1779273696890764199,2026-05-20 16:11:36.889,-0.012300,2.119994,114.152565,0.045732,-0.004190,0.979704,0.401211,-0.126224,9.715218,0.003733,0.011293,0.013620,-0.336787,0.368636,-0.855520,98953.0000
1779273696990684403,2026-05-20 16:11:36.989,-0.014432,2.044862,114.078064,0.049232,-0.000895,0.979138,0.311035,-0.024977,9.798102,0.002920,0.025312,0.015812,-0.335530,0.370212,-0.852891,98949.0000
1779273697090053051,2026-05-20 16:11:37.088,-0.023630,1.909268,114.009590,0.042368,0.001621,0.977607,0.521751,-0.310090,9.834195,0.002060,0.030419,-0.003234,-0.334689,0.368360,-0.855267,98947.0000
1779273697190701162,2026-05-20 16:11:37.189,-0.018346,1.514892,114.064232,0.036981,0.002416,0.980651,0.440484,0.283672,9.955120,-0.006846,0.086245,-0.031778,-0.333193,0.369253,-0.855626,98948.0000
1779273697290739791,2026-05-20 16:11:37.289,0.024074,0.862454,114.293640,0.017545,-0.001372,0.982812,-0.165105,0.232201,9.641754,-0.012314,0.131624,-0.048522,-0.332367,0.368556,-0.859229,98945.0000
1779273697390284347,2026-05-20 16:11:37.388,0.093599,0.117643,114.681664,-0.013502,-0.003690,0.984819,-0.191690,0.168888,10.125230,-0.012477,0.143470,-0.081278,-0.330010,0.367335,-0.860760,98955.0000
1779273697491115199,2026-05-20 16:11:37.489,0.175913,-0.566030,115.233994,-0.047199,-0.006629,0.979960,-0.245761,0.199315,9.894414,-0.014555,0.091256,-0.109112,-0.327720,0.365122,-0.865563,98950.0000
1779273697590553550,2026-05-20 16:11:37.589,0.245383,-0.906968,115.869339,-0.065609,-0.017214,0.978470,-0.294446,-0.274661,9.988250,-0.007550,0.017725,-0.101490,-0.329582,0.360882,-0.867514,98952.0000
1779273697690543995,2026-05-20 16:11:37.688,0.292012,-1.012689,116.574707,-0.060481,-0.017605,0.978206,-1.636429,0.254466,9.259274,0.014820,0.039820,-0.124011,-0.333182,0.357604,-0.866744,98954.0000
1779273697791782884,2026-05-20 16:11:37.790,0.305961,-1.244975,117.420723,-0.070762,-0.021384,0.979462,-1.346619,-0.445092,9.928531,0.018741,0.094387,-0.164656,-0.336824,0.353966,-0.868063,98955.0000
1779273697890811013,2026-05-20 16:11:37.889,0.260433,-1.831639,118.619637,-0.096671,-0.023648,0.971730,-2.172364,-0.471846,9.462940,0.016422,0.084650,-0.205894,-0.341730,0.347561,-0.871983,98947.0000
1779273697990583365,2026-05-20 16:11:37.989,0.220067,-2.099996,119.835289,-0.123011,-0.016670,0.970879,-1.616479,-0.095667,9.771864,0.023722,0.017378,-0.192231,-0.346310,0.340320,-0.874092,98954.0000
1779273698090265309,2026-05-20 16:11:38.088,0.221229,-1.906565,120.999847,-0.124458,-0.011193,0.971067,-0.614876,0.351094,10.214174,0.018228,-0.046367,-0.200662,-0.355906,0.333452,-0.872484,98946.0000
1779273698191665383,2026-05-20 16:11:38.190,0.207636,-1.373619,122.202293,-0.110284,-0.015836,0.967668,-0.186053,-0.144019,9.804136,0.012082,-0.116856,-0.220147,-0.364598,0.327483,-0.870920,98958.0000
1779273698290777902,2026-05-20 16:11:38.289,0.132823,-0.580505,123.465317,-0.082494,-0.014642,0.963296,-1.053676,-0.006981,9.431945,0.015761,-0.155506,-0.226752,-0.377722,0.319809,-0.865604,98949.0000
1779273698390760457,2026-05-20 16:11:38.389,-0.006347,0.222737,124.766029,-0.043403,-0.014920,0.969844,0.237959,-0.692745,9.796921,0.019666,-0.137732,-0.238408,-0.390003,0.311464,-0.862992,98947.0000
1779273698490166031,2026-05-20 16:11:38.488,-0.166918,0.548264,126.237595,-0.003051,-0.003201,0.984711,0.258364,-0.500690,9.770314,0.039872,-0.003701,-0.273202,-0.400203,0.301049,-0.860383,98959.0000
1779273698590705291,2026-05-20 16:11:38.589,-0.296272,0.370745,127.929749,-0.003773,0.002745,0.985226,-0.258184,-0.691793,9.351830,0.016293,0.054968,-0.311333,-0.408693,0.289626,-0.861992,98950.0000
1779273698690509346,2026-05-20 16:11:38.689,-0.328367,-0.013125,129.752197,-0.009637,0.010829,0.989653,0.294958,0.083795,9.682919,0.016611,0.091212,-0.331516,-0.415413,0.278764,-0.865160,98951.0000
1779273698792158105,2026-05-20 16:11:38.790,-0.245121,-0.233200,131.684143,-0.031325,0.010807,0.980369,-0.454284,0.384408,9.827494,-0.021598,0.015300,-0.348543,-0.422991,0.267076,-0.865886,98949.0000
1779273698892083420,2026-05-20 16:11:38.890,-0.110210,-0.141249,133.733490,-0.029776,0.005388,0.978733,-0.001748,-0.394780,9.850634,-0.024058,-0.035563,-0.365273,-0.433801,0.254872,-0.863219,98949.0000
1779273698990820364,2026-05-20 16:11:38.989,0.023833,0.158580,135.873932,-0.014840,-0.000668,0.976039,0.407034,-0.219440,9.934957,-0.019169,-0.057347,-0.376647,-0.445535,0.239677,-0.860756,98949.0000
1779273699090374401,2026-05-20 16:11:39.089,0.108664,0.454974,138.061737,0.004660,-0.006955,0.976732,0.362401,-0.151947,9.901924,-0.009188,-0.046198,-0.380035,-0.455160,0.224811,-0.857756,98949.0000
1779273699191903790,2026-05-20 16:11:39.190,0.130469,0.593065,140.222244,0.018932,-0.010720,0.978881,0.450034,0.065629,9.878022,-0.009684,-0.011594,-0.368770,-0.465138,0.208680,-0.857115,98945.0000
1779273699290977994,2026-05-20 16:11:39.289,0.110076,0.525423,142.330704,0.023076,-0.009387,0.977537,0.383589,-0.177737,9.725279,0.001816,0.020921,-0.366928,-0.471552,0.192825,-0.858071,98949.0000
1779273699390417938,2026-05-20 16:11:39.389,0.087801,0.335465,144.430481,0.017161,-0.007635,0.978754,0.056684,0.251882,9.865309,-0.000102,0.034543,-0.366577,-0.479129,0.177899,-0.857520,98947.0000
1779273699490344975,2026-05-20 16:11:39.488,0.087634,0.109849,146.574539,0.007207,-0.005722,0.978343,-0.207862,-0.165778,9.732157,0.001009,0.039491,-0.379205,-0.484062,0.161439,-0.859099,98949.0000
1779273699590094975,2026-05-20 16:11:39.588,0.098685,-0.046471,148.736755,-0.004172,-0.003882,0.978672,-0.224535,-0.288387,9.735661,0.000926,0.020573,-0.378341,-0.490199,0.143196,-0.860305,98951.0000
1779273699690656012,2026-05-20 16:11:39.689,0.111302,-0.055710,150.889816,-0.011361,-0.004380,0.978847,-0.294318,-0.000585,9.659605,0.006276,-0.013356,-0.374949,-0.493587,0.127412,-0.859540,98951.0000
1779273699790546271,2026-05-20 16:11:39.789,0.116692,0.070270,153.044022,-0.008238,-0.004011,0.978997,0.163476,-0.180386,9.822847,-0.001904,-0.031115,-0.376972,-0.499689,0.110990,-0.859591,98957.0000
1779273699892072734,2026-05-20 16:11:39.890,0.123003,0.265983,155.208099,-0.001172,-0.002574,0.978477,-0.161755,0.167457,9.693725,-0.009272,-0.040150,-0.381798,-0.505207,0.093958,-0.860242,98955.0000
1779273699991039827,2026-05-20 16:11:39.989,0.145627,0.442827,157.382172,0.010479,-0.003802,0.977477,0.182552,-0.165244,9.858292,-0.009028,-0.028373,-0.380631,-0.510969,0.076131,-0.857568,98948.0000
1779273700090868919,2026-05-20 16:11:40.089,0.183450,0.512555,159.521362,0.016804,-0.005814,0.978065,0.261352,0.039932,9.821778,-0.006081,-0.004638,-0.367917,-0.513773,0.057384,-0.856447,98947.0000
1779273700190573234,2026-05-20 16:11:40.189,0.229158,0.469955,161.582214,0.016523,-0.006464,0.978268,0.170316,0.053466,9.771340,-0.005849,0.015335,-0.357592,-0.515674,0.040419,-0.855691,98951.0000
1779273700290093419,2026-05-20 16:11:40.288,0.285399,0.348899,163.584869,0.011236,-0.007841,0.979177,0.165861,-0.071617,9.790723,-0.014532,0.030811,-0.349965,-0.516096,0.026674,-0.857151,98956.0000
1779273700390987882,2026-05-20 16:11:40.389,0.338835,0.220665,165.608810,0.002776,-0.007228,0.980223,-0.032911,0.088717,9.769133,-0.009413,0.020030,-0.364463,-0.516232,0.010261,-0.858253,98952.0000
1779273700490751049,2026-05-20 16:11:40.489,0.378721,0.158011,167.706802,-0.002681,-0.009478,0.978655,0.217265,0.060383,9.764110,-0.000273,0.005002,-0.373847,-0.515165,-0.007902,-0.858444,98946.0000
1779273700590266012,2026-05-20 16:11:40.588,0.380146,0.163916,169.840576,-0.001997,-0.012827,0.978817,0.092633,0.143948,9.780589,0.009411,-0.000796,-0.367438,-0.516494,-0.026379,-0.858567,98948.0000
1779273700690826919,2026-05-20 16:11:40.689,0.340822,0.224390,171.930710,-0.000296,-0.010978,0.977030,-0.069838,-0.095335,9.699216,0.011198,-0.008380,-0.356862,-0.516014,-0.041877,-0.859107,98955.0000
1779273700790917789,2026-05-20 16:11:40.789,0.286680,0.299339,173.956161,0.002903,-0.005518,0.976898,-0.137412,0.202703,9.706640,0.007240,-0.009090,-0.349614,-0.513406,-0.059075,-0.857261,98958.0000
1779273700890481400,2026-05-20 16:11:40.889,0.263009,0.352831,175.965805,0.006726,-0.003799,0.978367,0.012501,0.028214,9.821246,-0.000228,-0.009406,-0.348328,-0.511400,-0.075105,-0.856028,98951.0000
1779273700992042382,2026-05-20 16:11:40.990,0.287928,0.385093,178.031967,0.007376,0.000776,0.978502,-0.071946,-0.318318,9.768250,-0.012852,-0.000485,-0.366520,-0.510017,-0.090589,-0.856291,98954.0000
1779273701090960752,2026-05-20 16:11:41.089,0.356203,0.400253,180.151001,0.009501,-0.003599,0.979942,0.121985,-0.311091,9.786046,-0.012562,0.005937,-0.373295,-0.507152,-0.108147,-0.856543,98947.0000
1779273701190572085,2026-05-20 16:11:41.189,0.431004,0.387822,182.277802,0.009349,-0.009152,0.980711,-0.001774,-0.019954,9.694359,-0.017790,0.005455,-0.372521,-0.503093,-0.125408,-0.857132,98949.0000
1779273701292129493,2026-05-20 16:11:41.290,0.474839,0.347392,184.381790,0.008352,-0.011315,0.979846,0.135919,-0.181517,9.850375,-0.006109,0.014452,-0.361796,-0.497522,-0.141750,-0.857181,98958.0000
1779273701391965474,2026-05-20 16:11:41.390,0.474247,0.301001,186.442505,0.004297,-0.010533,0.978559,0.157800,-0.181572,9.806714,0.001922,0.011439,-0.355073,-0.493465,-0.158425,-0.858084,98949.0000
1779273701490970381,2026-05-20 16:11:41.489,0.447909,0.277242,188.476212,0.001571,-0.010303,0.976496,-0.007176,-0.329750,9.799781,0.009579,0.009469,-0.353403,-0.486677,-0.175021,-0.856959,98954.0000
1779273701590767881,2026-05-20 16:11:41.589,0.409689,0.296902,190.469818,0.001571,-0.006534,0.976777,0.229503,-0.086790,9.956964,0.002803,-0.000004,-0.344634,-0.479313,-0.188412,-0.858325,98949.0000
1779273701690189844,2026-05-20 16:11:41.688,0.373996,0.363770,192.381821,0.002589,-0.005799,0.977732,0.133750,-0.041067,9.954882,0.001622,-0.012752,-0.325332,-0.471634,-0.203541,-0.858157,98956.0000
1779273701790737011,2026-05-20 16:11:41.789,0.361006,0.429922,194.208084,0.005373,-0.003284,0.978103,0.208767,0.040680,9.771678,-0.002752,-0.006263,-0.314395,-0.467217,-0.217762,-0.856728,98954.0000
1779273701890635881,2026-05-20 16:11:41.889,0.372825,0.487676,195.899460,0.005631,-0.006162,0.978194,0.004818,-0.043986,9.676199,-0.005617,-0.024672,-0.282316,-0.461627,-0.232011,-0.856529,98958.0000
1779273701990165474,2026-05-20 16:11:41.988,0.389054,0.708352,197.426086,0.009054,-0.006904,0.976918,0.080379,0.060366,9.749565,0.001300,-0.050695,-0.253167,-0.456597,-0.240610,-0.856450,98944.0000
1779273702090131751,2026-05-20 16:11:42.088,0.398400,1.017784,198.806732,0.023625,-0.007165,0.977336,0.081825,-0.124109,9.647877,-0.000731,-0.060947,-0.218887,-0.452463,-0.252155,-0.855079,98953.0000
1779273702190840326,2026-05-20 16:11:42.189,0.380200,1.547246,199.887451,0.039650,-0.010439,0.972591,-0.143994,-0.524488,9.514423,0.002131,-0.121738,-0.145725,-0.450611,-0.258826,-0.849568,98951.0000
1779273702290692548,2026-05-20 16:11:42.289,0.361537,2.393771,200.568344,0.077628,-0.007258,0.974534,0.232589,-0.494755,9.399890,-0.000346,-0.140457,-0.095418,-0.452048,-0.264337,-0.844300,98948.0000
1779273702390570455,2026-05-20 16:11:42.389,0.380864,3.122890,201.038956,0.116901,-0.003066,0.978014,1.351095,0.167440,9.649817,-0.003562,-0.094721,-0.071501,-0.453773,-0.268063,-0.839069,98952.0000
1779273702491105492,2026-05-20 16:11:42.489,0.452093,3.405401,201.386292,0.143143,-0.006042,0.980141,0.930696,-0.245470,9.553939,-0.012986,0.011022,-0.048981,-0.455814,-0.267698,-0.836326,98954.0000
1779273702590617122,2026-05-20 16:11:42.589,0.547947,3.288471,201.626770,0.136102,-0.009231,0.975307,1.720053,-0.095936,9.934672,-0.016869,0.041470,-0.027950,-0.453517,-0.270487,-0.840517,98955.0000
1779273702692041344,2026-05-20 16:11:42.690,0.621639,3.028422,201.817032,0.121519,-0.011654,0.973014,1.034493,-0.484898,9.894351,-0.008250,0.039121,-0.021180,-0.449946,-0.271674,-0.841179,98952.0000
1779273702791884955,2026-05-20 16:11:42.790,0.621493,2.869865,201.996857,0.110074,-0.013902,0.971978,1.572134,-0.388291,9.716330,0.004666,0.015876,-0.035530,-0.447593,-0.273489,-0.842695,98953.0000
1779273702890855566,2026-05-20 16:11:42.889,0.561606,2.906732,202.164825,0.104510,-0.013407,0.971875,1.597173,-0.306024,9.889719,0.009182,-0.021371,-0.035352,-0.447271,-0.274336,-0.841183,98953.0000
1779273702990502640,2026-05-20 16:11:42.989,0.486323,3.120313,202.340790,0.107152,-0.007964,0.971305,1.915078,-0.476761,10.101933,0.012734,-0.047409,-0.036286,-0.447865,-0.276982,-0.839905,98950.0000
1779273703090501047,2026-05-20 16:11:43.089,0.444410,3.438023,202.514618,0.115984,-0.005656,0.970866,1.068974,-0.432202,9.854886,0.007041,-0.054297,-0.032122,-0.448734,-0.277826,-0.838063,98950.0000
1779273703190802973,2026-05-20 16:11:43.189,0.447706,3.770781,202.658203,0.125187,-0.005381,0.969812,1.387309,-0.090434,9.396745,-0.006501,-0.069036,-0.023493,-0.451102,-0.279861,-0.835854,98960.0000
1779273703290736917,2026-05-20 16:11:43.289,0.477011,4.045226,202.752197,0.134842,-0.006946,0.972822,1.232042,-0.046131,9.882568,-0.003899,-0.027632,-0.016036,-0.448970,-0.280082,-0.833804,98954.0000
1779273703390561195,2026-05-20 16:11:43.389,0.487836,4.120857,202.818329,0.135495,-0.009193,0.973086,1.691230,-0.133019,9.888536,0.005968,0.027056,-0.011586,-0.450432,-0.280038,-0.831968,98946.0000
1779273703492038399,2026-05-20 16:11:43.490,0.466178,3.850016,202.874817,0.120638,-0.006676,0.976200,0.964369,-0.106916,9.652042,0.007815,0.075777,-0.008206,-0.449294,-0.280418,-0.834987,98953.0000
1779273703591031010,2026-05-20 16:11:43.589,0.435403,3.290719,202.928070,0.095862,-0.002864,0.979077,-0.116815,0.131731,9.519418,0.007735,0.118064,-0.001548,-0.446065,-0.281380,-0.838046,98947.0000
1779273703690575121,2026-05-20 16:11:43.689,0.438826,2.678694,202.949509,0.065096,-0.002409,0.980644,0.365330,-0.041908,9.783501,0.003532,0.110795,0.008174,-0.441359,-0.280891,-0.842676,98952.0000
1779273703790296362,2026-05-20 16:11:43.788,0.466968,2.240556,202.894165,0.033295,-0.003490,0.977154,0.495212,-0.216983,9.834122,-0.006520,0.057167,0.019856,-0.439654,-0.281908,-0.847193,98951.0000
1779273703890171417,2026-05-20 16:11:43.888,0.486404,2.086294,202.762238,0.017966,-0.003088,0.976818,0.159030,0.006433,9.767832,0.000287,-0.000459,0.018646,-0.439957,-0.279853,-0.848135,98952.0000
1779273703990765436,2026-05-20 16:11:43.989,0.494095,2.187024,202.600861,0.022418,-0.001565,0.979783,0.087006,0.014118,9.762206,0.005030,-0.034970,0.025078,-0.439943,-0.278654,-0.847864,98951.0000
1779273704090638713,2026-05-20 16:11:44.089,0.499836,2.426814,202.435532,0.037381,-0.000480,0.978690,0.399498,-0.484427,9.867176,0.002212,-0.042541,0.030894,-0.443198,-0.279206,-0.845668,98953.0000
1779273704190279176,2026-05-20 16:11:44.188,0.508881,2.601485,202.261337,0.050277,0.000605,0.976794,1.043152,-0.064559,9.796010,-0.001707,-0.023322,0.026369,-0.443759,-0.276793,-0.844512,98952.0000
1779273704291277713,2026-05-20 16:11:44.289,0.517316,2.616537,202.060669,0.058065,-0.004150,0.977312,0.326593,0.097993,9.761939,0.015091,0.014360,0.045899,-0.444663,-0.275338,-0.845424,98953.0000
1779273704390575083,2026-05-20 16:11:44.389,0.518204,2.483320,201.835587,0.052528,0.002506,0.975556,0.392934,0.060818,9.815332,0.000574,0.034934,0.041606,-0.444663,-0.273570,-0.846066,98957.0000
1779273704490487287,2026-05-20 16:11:44.489,0.509882,2.255113,201.585114,0.042145,0.001006,0.978357,0.751970,-0.095149,9.896802,-0.002959,0.041015,0.046842,-0.445857,-0.271512,-0.846685,98942.0000
1779273704590137435,2026-05-20 16:11:44.588,0.516225,2.049450,201.324753,0.030176,0.004265,0.980317,0.222361,0.161928,9.973884,0.003994,0.032544,0.050948,-0.444971,-0.270641,-0.847628,98951.0000
1779273704690686824,2026-05-20 16:11:44.689,0.531111,1.960129,201.057083,0.022361,0.004729,0.980067,0.420975,0.094685,9.774319,-0.006765,0.002285,0.037977,-0.446459,-0.268576,-0.847940,98958.0000
1779273704790542676,2026-05-20 16:11:44.789,0.550420,1.992399,200.773010,0.019529,0.001081,0.977442,-0.058519,-0.061264,9.530581,-0.000409,-0.017961,0.045964,-0.446159,-0.265923,-0.848911,98954.0000
1779273704890121954,2026-05-20 16:11:44.888,0.551268,2.104046,200.483093,0.028825,0.003029,0.977262,0.082566,0.009157,9.733155,0.005019,-0.016420,0.051521,-0.447640,-0.265319,-0.848288,98957.0000
1779273704990760805,2026-05-20 16:11:44.989,0.545699,2.235019,200.192642,0.035543,0.003158,0.977662,0.720076,0.272150,9.955364,0.014373,-0.014686,0.056625,-0.451494,-0.263521,-0.847033,98956.0000
1779273705090791972,2026-05-20 16:11:45.089,0.545091,2.317565,199.892441,0.034807,0.005061,0.974631,0.232851,-0.147347,9.695951,-0.001244,-0.012947,0.056442,-0.450902,-0.262643,-0.847669,98951.0000
1779273705190374898,2026-05-20 16:11:45.189,0.548280,2.318363,199.585388,0.035175,0.003884,0.976207,0.253764,0.091492,9.512122,0.004946,-0.008776,0.055766,-0.454455,-0.259662,-0.846750,98953.0000
1779273705291860879,2026-05-20 16:11:45.290,0.566701,2.296662,199.298386,0.037375,0.003732,0.978940,-0.126223,-0.169045,9.659608,0.001235,0.012100,0.046953,-0.455307,-0.256944,-0.845295,98948.0000
1779273705390880601,2026-05-20 16:11:45.389,0.591664,2.304723,199.027557,0.027383,0.005516,0.979313,0.486373,0.265902,9.972992,0.000159,-0.001087,0.035167,-0.455339,-0.256701,-0.847099,98953.0000
1779273705490760046,2026-05-20 16:11:45.489,0.614332,2.343640,198.766998,0.027548,0.000568,0.978194,0.433232,-0.204126,9.834608,-0.003359,-0.017455,0.044266,-0.456793,-0.253698,-0.845935,98947.0000
1779273705590567583,2026-05-20 16:11:45.589,0.617409,2.407931,198.510132,0.035276,-0.001015,0.979563,0.621062,-0.145598,9.710723,0.004088,-0.004479,0.043259,-0.458902,-0.251672,-0.847429,98947.0000
1779273705691023972,2026-05-20 16:11:45.689,0.607471,2.464327,198.270615,0.031373,0.001316,0.977204,-0.208116,-0.036389,9.666444,0.012449,-0.014965,0.045411,-0.458536,-0.249209,-0.844798,98948.0000
1779273705790578860,2026-05-20 16:11:45.789,0.597382,2.499465,198.035660,0.039520,0.003490,0.979151,0.521062,-0.009472,9.921384,0.003458,-0.002215,0.033177,-0.460045,-0.248650,-0.845673,98955.0000
1779273705890428860,2026-05-20 16:11:45.889,0.601370,2.541013,197.788406,0.037606,0.003025,0.976521,0.782012,0.251644,9.806709,-0.000204,-0.001120,0.039583,-0.462709,-0.245970,-0.845070,98948.0000
1779273705992005731,2026-05-20 16:11:45.990,0.615633,2.555322,197.541901,0.037334,0.002451,0.975369,0.255138,-0.175996,9.603839,0.003961,-0.000819,0.047271,-0.462421,-0.245987,-0.845677,98957.0000
1779273706090992805,2026-05-20 16:11:46.089,0.638746,2.535809,197.306915,0.037304,0.002989,0.978662,0.371672,0.171238,9.771906,-0.006044,0.008551,0.030930,-0.464776,-0.243584,-0.844474,98954.0000
1779273706190603138,2026-05-20 16:11:46.189,0.674841,2.512756,197.071182,0.032002,0.000375,0.978886,-0.126353,0.404112,9.751675,0.002051,0.003276,0.045386,-0.466276,-0.243305,-0.844743,98947.0000
1779273706292626379,2026-05-20 16:11:46.290,0.698669,2.507925,196.840027,0.032525,-0.000303,0.978806,0.146336,-0.148365,9.779977,0.000210,0.001581,0.048003,-0.465995,-0.240976,-0.846605,98958.0000
1779273706390977286,2026-05-20 16:11:46.389,0.707641,2.531163,196.618301,0.031795,0.000124,0.977797,0.576116,-0.113185,9.593610,-0.000147,-0.006610,0.026479,-0.465661,-0.238269,-0.845779,98945.0000
1779273706490855378,2026-05-20 16:11:46.489,0.704064,2.403535,196.466110,0.038901,0.000679,0.983667,0.342451,0.106148,9.817462,0.003473,0.060198,0.011292,-0.466274,-0.237119,-0.846991,98945.0000
1779273706590788693,2026-05-20 16:11:46.589,0.713169,1.900009,196.498184,0.024609,0.001052,0.984069,0.203650,0.173102,9.687349,-0.002671,0.117329,-0.023576,-0.463068,-0.239001,-0.850926,98960.0000
1779273706690581619,2026-05-20 16:11:46.689,0.753841,1.152749,196.697235,-0.003587,-0.003576,0.982335,-0.407777,-0.198545,9.530269,-0.002502,0.134148,-0.040874,-0.456857,-0.239665,-0.854667,98949.0000
1779273706790835286,2026-05-20 16:11:46.789,0.810218,0.407623,197.028732,-0.033098,-0.005801,0.983770,-0.383453,-0.159873,9.981682,-0.007247,0.132688,-0.071217,-0.451875,-0.240978,-0.859861,98952.0000
1779273706890688045,2026-05-20 16:11:46.889,0.868618,-0.156110,197.493073,-0.061266,-0.010546,0.978914,-0.805678,-0.022572,9.678443,-0.004252,0.070982,-0.089689,-0.445995,-0.243168,-0.864756,98953.0000
1779273706990565489,2026-05-20 16:11:46.989,0.913010,-0.325536,198.003677,-0.069101,-0.017484,0.976988,-0.266326,-0.136017,9.876842,-0.003139,-0.000872,-0.086712,-0.444581,-0.248001,-0.867376,98954.0000
1779273707091877823,2026-05-20 16:11:47.090,0.932085,-0.277125,198.594940,-0.061230,-0.016098,0.974579,-0.733428,-0.792805,9.648439,-0.012427,-0.022850,-0.101643,-0.441329,-0.251281,-0.868279,98955.0000
1779273707190658248,2026-05-20 16:11:47.189,0.940161,-0.433176,199.380066,-0.060367,-0.014699,0.978210,-0.075830,0.439651,9.942137,-0.007843,0.062302,-0.181520,-0.438953,-0.255713,-0.867634,98947.0000
1779273707292277545,2026-05-20 16:11:47.290,0.877744,-0.934062,200.501968,-0.086915,-0.022706,0.972116,-1.070520,0.423353,9.810205,0.026026,0.078525,-0.201842,-0.430098,-0.263801,-0.871264,98953.0000
1779273707392295045,2026-05-20 16:11:47.390,0.758291,-1.231756,201.767746,-0.108526,-0.015912,0.977107,-1.115143,0.540126,10.015503,0.020667,0.032439,-0.253467,-0.420653,-0.275726,-0.873917,98956.0000
1779273707490964915,2026-05-20 16:11:47.489,0.642287,-1.138551,203.113159,-0.118238,-0.013355,0.971735,-1.123353,-0.758363,9.722092,0.034118,-0.045179,-0.246536,-0.414994,-0.284565,-0.872049,98956.0000
1779273707590854600,2026-05-20 16:11:47.589,0.580630,-0.582707,204.453293,-0.105052,-0.004857,0.969797,-0.698589,0.138582,9.642197,0.009359,-0.114123,-0.234049,-0.412893,-0.293670,-0.868286,98958.0000
1779273707690964915,2026-05-20 16:11:47.689,0.597332,0.244816,205.802689,-0.072482,-0.003054,0.967275,0.031121,1.260626,9.921926,-0.012815,-0.171665,-0.232771,-0.409848,-0.300045,-0.863112,98958.0000
1779273707790108841,2026-05-20 16:11:47.788,0.636082,1.031959,207.143631,-0.030714,-0.013630,0.969357,-0.437849,-0.141077,9.185040,0.014843,-0.087677,-0.246174,-0.407745,-0.310620,-0.858713,98954.0000
1779273707890785118,2026-05-20 16:11:47.889,0.612818,1.308382,208.607544,-0.004460,-0.011788,0.982870,-0.615279,-0.379386,9.293412,-0.009565,-0.020251,-0.268271,-0.402074,-0.319441,-0.856246,98958.0000
1779273707990712433,2026-05-20 16:11:47.989,0.525093,1.075828,210.164017,0.000111,-0.010285,0.986172,-0.356983,0.506951,9.618855,0.012909,0.068561,-0.282419,-0.391382,-0.328627,-0.857197,98958.0000
1779273708090657637,2026-05-20 16:11:48.089,0.431374,0.634264,211.777344,-0.018211,-0.006595,0.986404,-0.155330,-0.293657,9.609072,0.018968,0.080110,-0.297222,-0.380141,-0.337890,-0.860860,98948.0000
1779273708190931322,2026-05-20 16:11:48.189,0.383836,0.327279,213.453262,-0.041036,0.000817,0.980173,-0.844412,0.050137,9.420798,0.009324,0.017016,-0.291130,-0.368860,-0.348561,-0.861790,98951.0000
1779273708290879489,2026-05-20 16:11:48.289,0.411431,0.504241,215.207016,-0.040796,0.006055,0.976838,-0.330397,0.348455,9.847138,-0.005533,-0.055622,-0.315291,-0.357857,-0.358611,-0.861830,98950.0000
1779273708390610211,2026-05-20 16:11:48.389,0.480658,0.989187,217.063538,-0.016682,0.002402,0.976941,0.298587,0.014909,9.881145,-0.004160,-0.070726,-0.326037,-0.348921,-0.368043,-0.860631,98950.0000
1779273708490065896,2026-05-20 16:11:48.488,0.529725,1.463525,218.994263,0.012828,-0.003698,0.977776,0.655621,-0.246631,9.921418,-0.015021,-0.057822,-0.345202,-0.340526,-0.377975,-0.856107,98947.0000
1779273708590620192,2026-05-20 16:11:48.589,0.511485,1.711337,220.990829,0.031167,-0.009426,0.978333,0.533114,-0.367419,9.810219,-0.005843,-0.011144,-0.355683,-0.329517,-0.386248,-0.856489,98949.0000
1779273708690443173,2026-05-20 16:11:48.689,0.442570,1.654494,223.024902,0.038227,-0.009857,0.981842,0.560602,0.018529,9.931502,0.000085,0.033864,-0.361195,-0.315218,-0.395385,-0.856633,98951.0000
1779273708790434173,2026-05-20 16:11:48.788,0.370815,1.348148,225.067001,0.027375,-0.007557,0.980187,0.251633,-0.316948,9.817291,0.002205,0.067925,-0.358013,-0.298839,-0.406007,-0.857095,98960.0000
1779273708890833155,2026-05-20 16:11:48.889,0.338989,0.945192,227.104599,0.006890,-0.001879,0.979798,-0.110823,0.161122,9.711239,-0.009688,0.066176,-0.354035,-0.283384,-0.416381,-0.859039,98951.0000
1779273708990827358,2026-05-20 16:11:48.989,0.358132,0.658969,229.176910,-0.013224,-0.000719,0.977591,-0.412758,0.218951,9.650445,-0.005835,0.039406,-0.369183,-0.266425,-0.422020,-0.862334,98951.0000
1779273709092162599,2026-05-20 16:11:49.090,0.393111,0.606424,231.292328,-0.019861,-0.005241,0.975811,-0.233043,-0.191678,9.720487,-0.003723,-0.003045,-0.373604,-0.249116,-0.430228,-0.861977,98954.0000
1779273709190165247,2026-05-20 16:11:49.188,0.411236,0.748325,233.480255,-0.014829,-0.006851,0.975790,-0.219577,-0.394769,9.646701,-0.004339,-0.033312,-0.386756,-0.235093,-0.437564,-0.861558,98959.0000
1779273709290748025,2026-05-20 16:11:49.289,0.383290,0.978710,235.743515,-0.002952,-0.008055,0.976214,0.180522,-0.014990,9.867466,-0.002165,-0.046735,-0.401005,-0.220196,-0.445227,-0.862353,98954.0000
1779273709390574099,2026-05-20 16:11:49.389,0.313086,1.182580,238.046318,0.008901,-0.008847,0.977417,0.052226,0.072706,9.818933,0.002131,-0.031631,-0.399990,-0.201674,-0.450750,-0.862092,98953.0000
1779273709490622932,2026-05-20 16:11:49.489,0.222457,1.285467,240.312187,0.016619,-0.007595,0.979315,0.192353,-0.152438,9.776602,0.006377,-0.010739,-0.390542,-0.186420,-0.458024,-0.859907,98956.0000
1779273709590080488,2026-05-20 16:11:49.588,0.140250,1.255953,242.507751,0.017338,-0.004331,0.979795,0.135583,-0.013053,9.838925,0.003122,0.009844,-0.379067,-0.167633,-0.463012,-0.861764,98956.0000
1779273709690694803,2026-05-20 16:11:49.689,0.108088,1.127968,244.665642,0.013301,-0.000196,0.982051,0.093129,0.039875,9.901918,-0.003494,0.018706,-0.378854,-0.150004,-0.467061,-0.861816,98952.0000
1779273709791894562,2026-05-20 16:11:49.790,0.138609,0.971263,246.879684,0.007174,0.001498,0.981147,-0.049432,0.100723,9.738605,-0.017784,0.024142,-0.397889,-0.130595,-0.470828,-0.862819,98954.0000
1779273709892221580,2026-05-20 16:11:49.890,0.211892,0.851480,247.673347,0.000157,-0.003151,0.979740,-0.127846,-0.017666,9.736019,-0.015967,0.015539,-0.407146,-0.111461,-0.472794,-0.863258,98953.0000
1779273709990764154,2026-05-20 16:11:49.989,0.265897,0.801177,249.997192,-0.002608,-0.011046,0.976648,-0.103420,-0.026548,9.751451,-0.008866,-0.002236,-0.401150,-0.093256,-0.475108,-0.865165,98958.0000
1779273710090953895,2026-05-20 16:11:50.089,0.243712,0.817195,252.272240,-0.002943,-0.015402,0.974087,-0.220469,-0.222119,9.614798,0.007575,-0.010928,-0.389569,-0.074387,-0.475253,-0.864442,98954.0000
1779273710192073895,2026-05-20 16:11:50.190,0.150862,0.886963,254.473969,-0.001432,-0.011880,0.975026,-0.314034,0.049787,9.621165,0.015961,-0.010469,-0.381991,-0.055877,-0.478440,-0.865736,98948.0000
1779273710290096524,2026-05-20 16:11:50.288,0.051693,0.982307,256.646751,0.002027,-0.004188,0.977117,-0.261071,-0.026195,9.623775,0.011351,-0.013159,-0.381099,-0.038187,-0.478269,-0.864091,98947.0000
1779273710391002191,2026-05-20 16:11:50.389,-0.006028,1.071276,258.839310,0.006566,0.001100,0.979939,-0.182894,0.111075,9.657464,0.001681,-0.010089,-0.386725,-0.021119,-0.476667,-0.864264,98954.0000
1779273710490535358,2026-05-20 16:11:50.489,0.007346,1.126460,261.067261,0.009174,-0.000673,0.981400,-0.162247,0.022469,9.730087,-0.017689,-0.008987,-0.392682,-0.003470,-0.476856,-0.864708,98965.0000
1779273710590381895,2026-05-20 16:11:50.588,0.056817,1.149998,263.276382,0.011207,-0.005184,0.980930,0.388399,-0.073016,9.932951,-0.013294,0.005154,-0.382164,0.013584,-0.474100,-0.866108,98956.0000
1779273710690839154,2026-05-20 16:11:50.689,0.095615,1.132283,265.432289,0.011095,-0.009852,0.979196,0.108860,-0.121244,9.767608,-0.004512,0.006402,-0.369606,0.031868,-0.469515,-0.866383,98952.0000
1779273710790719320,2026-05-20 16:11:50.789,0.092633,1.074560,267.540817,0.010160,-0.010796,0.977744,0.327954,-0.102120,9.877792,-0.006717,0.012383,-0.364454,0.048629,-0.467338,-0.867162,98952.0000
1779273710890306802,2026-05-20 16:11:50.889,0.049412,1.003657,268.126297,0.007492,-0.009727,0.977679,0.277963,-0.011565,9.906029,0.006640,0.012945,-0.363235,0.065711,-0.461886,-0.868027,98961.0000
1779273710990202839,2026-05-20 16:11:50.988,-0.016843,0.954853,270.206909,0.004165,-0.006122,0.977725,0.022107,-0.074126,9.744905,0.012885,0.004235,-0.363230,0.083421,-0.458739,-0.866453,98959.0000
1779273711091115579,2026-05-20 16:11:51.089,-0.068187,0.943264,272.291901,0.001881,-0.002491,0.977566,-0.106468,0.333291,9.853145,0.000913,-0.003602,-0.366078,0.098736,-0.453252,-0.865775,98954.0000
1779273711190641728,2026-05-20 16:11:51.189,-0.085281,0.970822,274.381790,0.003840,-0.003952,0.978570,0.114473,-0.400639,9.793368,-0.003845,-0.005515,-0.364175,0.115529,-0.447198,-0.866347,98954.0000
1779273711292179135,2026-05-20 16:11:51.290,-0.066389,1.015646,276.475937,0.004792,-0.001996,0.977980,0.120189,-0.016409,9.787166,-0.011633,-0.013922,-0.364923,0.130237,-0.439668,-0.866902,98950.0000
1779273711391098709,2026-05-20 16:11:51.389,-0.042068,1.042439,278.552483,0.007929,-0.007537,0.978687,0.145034,0.038674,9.909453,-0.002429,0.000500,-0.357774,0.146407,-0.433950,-0.868650,98950.0000
1779273711490977857,2026-05-20 16:11:51.489,-0.044230,1.045955,280.612991,0.010125,-0.008448,0.978498,0.360626,-0.463263,9.921282,0.000577,0.002073,-0.356068,0.162321,-0.427577,-0.868308,98954.0000
1779273711590793616,2026-05-20 16:11:51.589,-0.087854,1.021715,282.660095,0.009417,-0.009527,0.978250,-0.058906,-0.152619,9.673694,0.005049,0.002419,-0.355601,0.175813,-0.420379,-0.869724,98958.0000
1779273711690281135,2026-05-20 16:11:51.688,-0.154157,0.978998,284.677521,0.008483,-0.008065,0.979114,0.053372,-0.097270,9.768527,0.004614,0.006471,-0.350189,0.192025,-0.412533,-0.870025,98954.0000
1779273711790846931,2026-05-20 16:11:51.789,-0.212546,0.948441,286.612770,0.006376,-0.003810,0.979036,0.065977,-0.032585,9.771079,-0.000076,0.000143,-0.332175,0.205002,-0.401967,-0.868209,98952.0000
1779273711890780357,2026-05-20 16:11:51.889,-0.241631,0.936863,288.446815,0.006715,-0.002564,0.978854,-0.067780,-0.244213,9.796432,-0.005161,-0.000084,-0.315788,0.217315,-0.394749,-0.868695,98950.0000
1779273711990182746,2026-05-20 16:11:51.988,-0.247307,0.893924,290.147705,0.009431,-0.005417,0.979174,0.018615,-0.098959,9.749232,-0.001378,0.000370,-0.287990,0.229342,-0.385450,-0.869224,98949.0000
1779273712091086431,2026-05-20 16:11:52.089,-0.246707,1.010302,291.695923,0.003191,-0.006851,0.974555,0.094589,-0.082843,9.825826,-0.000496,-0.032021,-0.259800,0.238673,-0.375879,-0.869991,98948.0000
1779273712190825449,2026-05-20 16:11:52.189,-0.264554,1.288056,293.123070,0.014512,-0.005306,0.975784,0.112895,-0.170061,9.736233,0.001087,-0.051903,-0.241690,0.247341,-0.372012,-0.872104,98955.0000
1779273712290654301,2026-05-20 16:11:52.289,-0.294004,1.743571,294.333717,0.032192,-0.006799,0.972870,0.356578,-0.163587,9.578298,0.002595,-0.104769,-0.178896,0.252723,-0.365503,-0.874796,98956.0000
1779273712391927893,2026-05-20 16:11:52.390,-0.324958,2.662372,295.121422,0.059585,-0.007139,0.970860,0.804595,0.178706,9.651875,-0.000614,-0.179824,-0.100715,0.251191,-0.360859,-0.878468,98952.0000
1779273712491026764,2026-05-20 16:11:52.489,-0.313725,3.662430,295.590637,0.111170,-0.004007,0.976462,1.591474,-0.193318,9.896732,-0.015140,-0.143587,-0.059454,0.247530,-0.358049,-0.883241,98954.0000
1779273712590855986,2026-05-20 16:11:52.589,-0.268892,4.188291,295.907753,0.153331,-0.004854,0.978912,2.294803,0.176542,9.887904,-0.013284,-0.049713,-0.050166,0.247454,-0.356110,-0.888084,98950.0000
1779273712690364171,2026-05-20 16:11:52.689,-0.201158,4.207389,296.217186,0.161948,-0.007562,0.977313,1.260499,-0.335005,9.760623,-0.013271,0.023965,-0.049577,0.248645,-0.355228,-0.888735,98955.0000
1779273712790154171,2026-05-20 16:11:52.788,-0.139320,3.957921,296.548225,0.152406,-0.008827,0.974130,1.595471,-0.068821,9.666311,-0.013165,0.053211,-0.062264,0.250177,-0.352216,-0.887946,98952.0000
1779273712890999912,2026-05-20 16:11:52.889,-0.125281,3.640224,296.832600,0.130561,-0.014203,0.972876,1.294299,-0.018302,9.753453,-0.001945,0.054885,-0.044452,0.254731,-0.350610,-0.885102,98960.0000
1779273712990674152,2026-05-20 16:11:52.989,-0.170855,3.397263,297.061104,0.111861,-0.015107,0.970160,1.743962,-0.119249,10.068047,0.002121,0.018008,-0.035693,0.257441,-0.347916,-0.885235,98952.0000
1779273713091960893,2026-05-20 16:11:53.090,-0.252569,3.364041,297.252758,0.098931,-0.011115,0.968011,1.240234,-0.362981,9.622747,0.005264,-0.014177,-0.049067,0.261048,-0.348750,-0.884107,98948.0000
1779273713190848856,2026-05-20 16:11:53.189,-0.328263,3.581673,297.408466,0.099861,-0.008969,0.972131,0.749891,0.008056,9.914670,0.012806,-0.054046,-0.027374,0.258947,-0.346418,-0.885309,98960.0000
1779273713290741300,2026-05-20 16:11:53.289,-0.363283,3.903673,297.526917,0.114760,-0.004291,0.973647,1.767512,0.194989,9.824325,0.012357,-0.043178,-0.014447,0.257417,-0.347365,-0.886747,98954.0000
1779273713392127745,2026-05-20 16:11:53.390,-0.344097,4.243858,297.616028,0.121753,-0.003888,0.971219,1.902513,-0.130975,9.683958,0.000901,-0.051152,-0.009496,0.256495,-0.346821,-0.888237,98952.0000
1779273713491957597,2026-05-20 16:11:53.490,-0.295694,4.445569,297.653500,0.134402,-0.003922,0.976470,1.460793,0.234398,9.378713,-0.016418,-0.008240,-0.005385,0.253797,-0.345078,-0.889109,98952.0000
1779273713590970763,2026-05-20 16:11:53.589,-0.277095,4.243873,297.647797,0.129165,-0.008401,0.974625,1.337080,-0.100956,9.857090,-0.004607,0.064890,0.002684,0.255609,-0.344157,-0.888578,98949.0000
1779273713690817652,2026-05-20 16:11:53.689,-0.311426,3.716568,297.594322,0.098476,-0.009156,0.973669,0.578517,-0.060512,9.499593,0.009575,0.103637,0.016575,0.261338,-0.345818,-0.885685,98952.0000
1779273713790674948,2026-05-20 16:11:53.789,-0.371122,3.062392,297.499691,0.070755,-0.003567,0.978870,0.768103,-0.161847,9.793262,0.008238,0.116618,0.012758,0.265921,-0.346521,-0.880386,98954.0000
1779273713890974374,2026-05-20 16:11:53.889,-0.407607,2.538961,297.368614,0.033793,-0.000224,0.980247,0.461351,-0.141130,9.955198,0.004726,0.077873,0.029813,0.266574,-0.347608,-0.877077,98951.0000
1779273713990851744,2026-05-20 16:11:53.989,-0.386585,2.307048,297.175201,0.013319,0.003165,0.980639,-0.006635,-0.126557,9.751369,-0.009178,0.015360,0.034922,0.268369,-0.348481,-0.876802,98955.0000
1779273714090433559,2026-05-20 16:11:54.089,-0.307223,2.380429,296.888561,0.013595,0.000221,0.979389,-0.102111,-0.319561,9.839504,-0.014709,-0.035587,0.054802,0.264468,-0.349407,-0.876981,98953.0000
1779273714191949985,2026-05-20 16:11:54.190,-0.227227,2.616109,296.534599,0.028062,-0.001776,0.977791,0.057462,-0.200975,9.935786,-0.011816,-0.043984,0.063400,0.263218,-0.350676,-0.879318,98952.0000
1779273714291347207,2026-05-20 16:11:54.289,-0.190953,2.832664,296.133453,0.044163,-0.003430,0.976521,0.331370,0.017846,9.969016,-0.001657,-0.023146,0.061814,0.258104,-0.352520,-0.880043,98954.0000
1779273714390904596,2026-05-20 16:11:54.389,-0.207318,2.879446,295.737656,0.051836,-0.001189,0.975529,0.654746,0.126236,10.037961,0.005905,0.001068,0.061210,0.255409,-0.354602,-0.879325,98954.0000
1779273714490789429,2026-05-20 16:11:54.489,-0.244008,2.801773,295.381157,0.050239,0.000588,0.977067,0.202761,-0.161238,9.991144,0.013089,0.024765,0.062022,0.253032,-0.356357,-0.877723,98947.0000
1779273714591406022,2026-05-20 16:11:54.589,-0.277186,2.611515,295.039337,0.043140,0.003883,0.980104,0.436503,0.003754,10.136740,0.012062,0.032076,0.058951,0.253022,-0.359613,-0.877045,98948.0000
1779273714690815762,2026-05-20 16:11:54.689,-0.292589,2.436642,294.686287,0.030235,0.005091,0.979666,-0.122147,-0.124770,9.822397,0.001185,0.022285,0.059619,0.253300,-0.362884,-0.876973,98954.0000
1779273714792205522,2026-05-20 16:11:54.790,-0.287430,2.333629,294.333069,0.025063,0.005575,0.980953,0.592379,0.092775,9.927235,0.007092,0.016568,0.053782,0.250942,-0.363431,-0.874801,98954.0000
1779273714890178448,2026-05-20 16:11:54.888,-0.281426,2.330407,293.991165,0.018976,0.003511,0.977714,-0.067011,0.071302,9.533528,0.003765,-0.004432,0.060234,0.250016,-0.365249,-0.875633,98951.0000
1779273714991066059,2026-05-20 16:11:54.989,-0.288984,2.401963,293.667351,0.025880,0.003635,0.977792,0.105314,0.269654,9.578039,0.012046,-0.013901,0.055859,0.247329,-0.365257,-0.875265,98956.0000
1779273715090648003,2026-05-20 16:11:55.089,-0.292011,2.523578,293.344170,0.028311,0.002041,0.975909,0.240750,-0.149370,9.654293,0.002178,-0.013925,0.061399,0.243108,-0.367690,-0.875999,98957.0000
1779273715190729410,2026-05-20 16:11:55.189,-0.306020,2.609612,292.984558,0.032083,0.001653,0.974515,0.284045,-0.011570,9.637761,0.009081,-0.014770,0.065717,0.241578,-0.370405,-0.876794,98958.0000
1779273715290109521,2026-05-20 16:11:55.288,-0.306213,2.664637,292.597305,0.035452,0.005348,0.976125,0.348048,-0.052289,9.760100,0.003067,-0.006641,0.069670,0.239143,-0.372548,-0.878181,98954.0000
1779273715390789651,2026-05-20 16:11:55.389,-0.283348,2.706423,292.215118,0.032886,0.006642,0.978845,0.277379,-0.057140,9.786532,0.000024,0.007580,0.068781,0.235582,-0.373995,-0.875956,98952.0000
1779273715492021966,2026-05-20 16:11:55.490,-0.239039,2.735397,291.829025,0.029798,0.005646,0.979067,0.479545,0.100181,9.628706,-0.006601,-0.002804,0.063224,0.234374,-0.374020,-0.876524,98950.0000
1779273715592012873,2026-05-20 16:11:55.590,-0.200151,2.750788,291.438530,0.029938,0.000997,0.980564,0.368059,0.294703,9.740991,0.001728,-0.015753,0.068055,0.232259,-0.375539,-0.877034,98950.0000
1779273715690990688,2026-05-20 16:11:55.689,-0.174532,2.795475,291.058136,0.036201,0.000743,0.980985,0.130399,-0.099455,9.859835,0.008363,-0.001399,0.072510,0.228629,-0.379159,-0.877754,98949.0000
1779273715790840262,2026-05-20 16:11:55.789,-0.169237,2.838549,290.700836,0.033700,0.002838,0.977204,0.543337,-0.311826,10.010153,0.006280,-0.004878,0.057985,0.223862,-0.380334,-0.876105,98954.0000
1779273715890514632,2026-05-20 16:11:55.889,-0.195611,2.833751,290.361183,0.033614,0.004044,0.975060,0.678523,-0.082087,9.977873,0.012482,-0.005359,0.060476,0.224131,-0.382442,-0.876962,98959.0000
1779273715992143336,2026-05-20 16:11:55.990,-0.215445,2.829871,290.032013,0.034216,0.003329,0.975697,0.014191,-0.016470,9.857348,0.001482,-0.001341,0.057697,0.221718,-0.385433,-0.876828,98952.0000
1779273716090933391,2026-05-20 16:11:56.089,-0.209974,2.860878,289.693062,0.034715,0.004888,0.976246,0.087790,-0.183088,9.868624,-0.001883,-0.002745,0.058938,0.218696,-0.386677,-0.877921,98956.0000
1779273716192020132,2026-05-20 16:11:56.190,-0.173175,2.923571,289.356934,0.029820,0.004166,0.977642,0.478463,0.064389,9.996276,-0.000803,-0.019090,0.057466,0.218683,-0.387877,-0.878192,98954.0000
1779273716291850262,2026-05-20 16:11:56.290,-0.133084,2.965368,289.030334,0.036870,0.002057,0.981256,0.021150,0.299355,9.780372,-0.000492,-0.010034,0.055168,0.215718,-0.386380,-0.877253,98957.0000
1779273716391034965,2026-05-20 16:11:56.389,-0.097101,3.016178,288.712830,0.043770,-0.000525,0.981367,0.312780,-0.420669,9.660831,0.001390,0.005298,0.057098,0.212078,-0.389720,-0.878580,98954.0000
1779273716491024021,2026-05-20 16:11:56.489,-0.096536,3.040682,288.400238,0.036220,-0.000204,0.976926,0.828154,-0.160973,9.716025,0.004174,-0.004405,0.051498,0.210591,-0.391777,-0.877293,98954.0000
1779273716590804150,2026-05-20 16:11:56.589,-0.131359,3.003715,288.097321,0.039124,0.000258,0.977657,0.272966,-0.041830,9.753412,0.011079,0.000412,0.047369,0.208220,-0.392639,-0.875712,98947.0000
1779273716690204335,2026-05-20 16:11:56.688,-0.169993,2.949979,287.800484,0.041864,0.003202,0.978996,0.408370,0.274924,9.862329,0.005489,0.015980,0.049723,0.207010,-0.393846,-0.875953,98956.0000
1779273716790995335,2026-05-20 16:11:56.789,-0.189378,2.920074,287.501389,0.031606,0.003599,0.976130,0.039932,0.080003,9.694318,0.003320,-0.002065,0.046946,0.205805,-0.396811,-0.875251,98954.0000
1779273716892045335,2026-05-20 16:11:56.890,-0.183551,2.904368,287.206245,0.035762,0.006647,0.977084,0.383444,-0.173391,9.652598,-0.005523,-0.005584,0.041474,0.203709,-0.397122,-0.875190,98955.0000
1779273716992166669,2026-05-20 16:11:56.990,-0.154587,2.924201,286.924034,0.036008,0.004198,0.978110,0.406903,0.385801,10.026835,0.000255,-0.003080,0.043333,0.201889,-0.400118,-0.875372,98949.0000
1779273717090992780,2026-05-20 16:11:57.089,-0.107649,2.956737,286.671776,0.035860,0.003979,0.978545,0.847830,0.516964,10.055600,-0.007553,-0.002553,0.033070,0.200389,-0.400722,-0.875319,98956.0000
1779273717190641317,2026-05-20 16:11:57.189,-0.073189,2.958067,286.432495,0.033173,-0.001576,0.976670,0.225831,-0.041755,9.706342,0.002701,-0.004290,0.040353,0.199489,-0.401025,-0.875289,98946.0000
1779273717290571335,2026-05-20 16:11:57.289,-0.063527,2.957162,286.204735,0.042000,-0.001180,0.979798,0.241858,0.211783,9.752922,0.003053,0.010922,0.031575,0.197687,-0.400459,-0.875857,98948.0000
1779273717390341316,2026-05-20 16:11:57.389,-0.069142,2.941836,286.012238,0.035282,0.001954,0.978186,0.546316,0.188607,9.690196,-0.001398,0.012220,0.028036,0.198291,-0.402214,-0.874930,98946.0000
1779273717490929668,2026-05-20 16:11:57.489,-0.076145,2.897268,285.836021,0.028853,-0.002990,0.975966,0.188463,-0.248190,9.827688,0.006926,-0.001664,0.033950,0.195878,-0.403437,-0.875439,98956.0000
1779273717590773557,2026-05-20 16:11:57.589,-0.079383,2.878139,285.663239,0.034236,0.001160,0.979494,-0.077642,0.515952,9.706166,0.008098,0.004593,0.024664,0.194362,-0.404068,-0.876285,98950.0000
1779273717692323613,2026-05-20 16:11:57.690,-0.069942,2.915865,285.499832,0.032482,0.000238,0.978265,0.453204,0.252055,9.823439,0.004904,-0.001602,0.022535,0.193182,-0.404049,-0.875356,98961.0000
1779273717791124427,2026-05-20 16:11:57.789,-0.059273,2.976471,285.344681,0.031085,0.000740,0.976299,0.795129,0.262465,9.847144,-0.001737,-0.010736,0.020678,0.192583,-0.404936,-0.875020,98944.0000
1779273717890924687,2026-05-20 16:11:57.889,-0.048480,3.038157,285.207199,0.036588,-0.002991,0.977721,0.168191,-0.610677,9.627535,0.002641,-0.013428,0.019798,0.190770,-0.404388,-0.876186,98952.0000
1779273717992330668,2026-05-20 16:11:57.990,-0.045924,3.094312,285.067917,0.038302,-0.002245,0.978129,0.207000,-0.052699,9.882875,0.003388,-0.013212,0.024190,0.188361,-0.405899,-0.876389,98958.0000
1779273718092413205,2026-05-20 16:11:58.090,-0.052681,3.106512,284.939919,0.042919,-0.001461,0.978728,0.268579,0.181885,9.864276,0.006289,0.003353,0.021375,0.188970,-0.406762,-0.875484,98952.0000
1779273718190867409,2026-05-20 16:11:58.189,-0.067856,3.068537,284.820580,0.039682,-0.000264,0.977648,0.701690,0.358612,9.813761,0.009022,0.005333,0.018581,0.188650,-0.408270,-0.876039,98948.0000
1779273718290728075,2026-05-20 16:11:58.289,-0.087111,3.016037,284.715164,0.037498,0.000491,0.976798,0.765023,0.187185,9.851917,0.001801,0.004519,0.012179,0.186586,-0.407940,-0.874495,98948.0000
1779273718392225279,2026-05-20 16:11:58.390,-0.096654,3.000100,284.634247,0.035907,0.001324,0.978312,0.452710,-0.217923,9.808088,0.002473,0.013911,0.006759,0.185998,-0.406455,-0.874516,98955.0000
1779273718492077094,2026-05-20 16:11:58.490,-0.096022,3.022689,284.583260,0.031370,-0.000118,0.976459,0.234774,-0.414184,9.718740,0.007056,-0.005371,0.012471,0.187465,-0.408259,-0.875410,98950.0000
1779273718590731631,2026-05-20 16:11:58.589,-0.079135,3.050933,284.566162,0.036390,0.000278,0.977939,0.631965,-0.058310,9.879739,0.001674,-0.008134,0.004397,0.185674,-0.408558,-0.875057,98951.0000
1779273718691007908,2026-05-20 16:11:58.689,-0.062272,3.093575,284.570618,0.036228,-0.000240,0.978069,0.393638,0.311622,9.990789,0.003830,-0.006713,-0.005273,0.186586,-0.407056,-0.874816,98946.0000
1779273718792058149,2026-05-20 16:11:58.790,-0.041397,3.134990,284.599693,0.038838,-0.002723,0.978435,0.505472,0.150668,9.867062,0.003484,-0.004163,-0.004098,0.187463,-0.406789,-0.876044,98956.0000
1779273718891383630,2026-05-20 16:11:58.889,-0.033383,3.150906,284.642372,0.041583,-0.003815,0.979148,0.615314,-0.042720,9.906520,0.004164,-0.000472,-0.006242,0.186850,-0.408290,-0.876293,98952.0000
1779273718990752556,2026-05-20 16:11:58.989,-0.034443,3.144210,284.677673,0.041807,-0.006639,0.977884,0.061875,-0.202862,9.778571,0.008430,0.006944,-0.001318,0.187766,-0.407076,-0.875746,98953.0000
1779273719091133075,2026-05-20 16:11:59.089,-0.029172,3.131861,284.689880,0.041105,-0.004138,0.976862,0.662018,-0.007382,9.849771,0.006415,0.010683,-0.001084,0.186592,-0.406163,-0.874838,98950.0000
1779273719190348019,2026-05-20 16:11:59.189,-0.033482,3.080727,284.681831,0.037967,-0.003562,0.976108,0.511133,0.093442,9.770887,0.002164,-0.001993,0.000761,0.188957,-0.408845,-0.875433,98948.0000
1779273719290948649,2026-05-20 16:11:59.289,-0.037466,3.032785,284.666733,0.039320,-0.003450,0.978778,0.282138,-0.016657,9.851623,0.007357,0.015504,0.000875,0.187160,-0.407386,-0.876022,98954.0000
1779273719390771278,2026-05-20 16:11:59.389,-0.037487,3.002399,284.666145,0.034585,-0.000821,0.978164,0.716785,0.174943,9.899686,-0.002553,0.007952,-0.007000,0.187764,-0.408257,-0.875417,98949.0000
1779273719492057111,2026-05-20 16:11:59.490,-0.038737,2.976814,284.695679,0.032330,-0.002117,0.978208,0.600281,-0.099120,9.785933,-0.006354,0.007809,-0.016605,0.188991,-0.406140,-0.874599,98953.0000
1779273719591252704,2026-05-20 16:11:59.589,-0.038195,2.988492,284.750351,0.036380,-0.003393,0.980194,0.380405,-0.172963,9.703914,-0.000241,-0.001851,-0.015388,0.188085,-0.405865,-0.875183,98955.0000
1779273719690669815,2026-05-20 16:11:59.689,-0.035278,3.039994,284.830620,0.034977,-0.003842,0.976960,0.476634,-0.330735,9.685288,-0.003114,-0.009814,-0.024925,0.188370,-0.407063,-0.875461,98956.0000
1779273719790782019,2026-05-20 16:11:59.789,-0.033179,3.081832,284.928642,0.039465,-0.003821,0.977636,0.106435,-0.488640,9.603552,-0.002797,-0.005663,-0.023708,0.189567,-0.407056,-0.875492,98952.0000
1779273719892230056,2026-05-20 16:11:59.890,-0.023505,3.127933,285.038101,0.041038,-0.003976,0.976960,0.526475,-0.017911,9.839731,0.002001,-0.008293,-0.023342,0.189263,-0.404415,-0.876747,98950.0000
1779273719991310333,2026-05-20 16:11:59.989,-0.020224,3.113933,285.156189,0.041913,-0.004564,0.977671,0.209423,0.117796,9.740234,0.001176,0.001186,-0.026601,0.191374,-0.404375,-0.875902,98948.0000
1779273720090936630,2026-05-20 16:12:00.089,-0.016681,3.051502,285.278908,0.040486,-0.005543,0.978080,0.130727,0.262304,9.739993,0.003575,0.014345,-0.023546,0.192324,-0.403108,-0.873558,98955.0000
1779273720190494852,2026-05-20 16:12:00.189,-0.004824,2.995467,285.411446,0.038708,-0.006768,0.978074,0.622871,0.218558,9.896840,-0.004121,0.011788,-0.024534,0.195304,-0.403107,-0.874233,98959.0000
1779273720291011759,2026-05-20 16:12:00.289,0.009021,2.957607,285.538712,0.033991,-0.007127,0.978100,0.233510,-0.005859,9.730599,-0.001276,0.001495,-0.023550,0.195873,-0.402562,-0.876060,98950.0000
1779273720390890129,2026-05-20 16:12:00.389,0.015738,2.955837,285.653267,0.031646,-0.009134,0.977285,0.302190,-0.330405,9.733688,0.003426,-0.005738,-0.018446,0.195911,-0.401029,-0.874598,98951.0000
1779273720490881185,2026-05-20 16:12:00.489,0.004754,2.956199,285.745834,0.034733,-0.007530,0.977988,0.474103,-0.069839,9.792830,0.001569,-0.001604,-0.017901,0.196477,-0.400782,-0.876418,98959.0000
1779273720590279463,2026-05-20 16:12:00.588,-0.015744,2.968648,285.834457,0.034449,-0.005201,0.978306,0.362398,-0.045553,9.927886,0.003779,0.000738,-0.015108,0.197989,-0.399276,-0.876193,98954.0000
1779273720691123981,2026-05-20 16:12:00.689,-0.032487,2.994464,285.922455,0.032917,-0.003173,0.976852,0.355435,0.065116,9.889218,0.004948,-0.005090,-0.015388,0.197108,-0.401022,-0.874629,98952.0000
1779273720791041351,2026-05-20 16:12:00.789,-0.042133,3.016551,286.007057,0.037400,-0.003258,0.978015,0.698205,0.201874,9.765197,-0.002918,-0.005894,-0.018374,0.199194,-0.400432,-0.875296,98952.0000
1779273720892143463,2026-05-20 16:12:00.890,-0.047081,3.018994,286.101135,0.037514,-0.005277,0.978470,-0.019165,0.051645,9.556162,0.000225,0.000250,-0.021108,0.200370,-0.401047,-0.876211,98950.0000
1779273720992134240,2026-05-20 16:12:00.990,-0.040349,3.036522,286.182953,0.037204,-0.005159,0.978486,0.398727,-0.134316,9.872182,-0.003515,-0.001570,-0.009578,0.199473,-0.399285,-0.876830,98952.0000
1779273721090891148,2026-05-20 16:12:01.089,-0.038474,3.045033,286.259239,0.036490,-0.004998,0.977743,0.531629,-0.052977,9.891793,0.007375,-0.007284,-0.006052,0.200091,-0.398073,-0.876275,98955.0000
1779273721190875222,2026-05-20 16:12:01.189,-0.037929,3.042027,286.331970,0.038802,-0.004268,0.978156,-0.221287,-0.039657,9.504006,0.002703,0.002819,-0.010577,0.201605,-0.397739,-0.875422,98945.0000
1779273721290836333,2026-05-20 16:12:01.289,-0.039048,3.027049,286.408722,0.040234,-0.003344,0.978782,0.513810,0.194149,9.683935,-0.000044,0.004691,-0.016329,0.201285,-0.398363,-0.876299,98953.0000
1779273721391105629,2026-05-20 16:12:01.389,-0.032858,3.010391,286.482330,0.035398,-0.004148,0.976636,0.827850,-0.236035,9.674542,-0.003591,0.000139,-0.023220,0.201573,-0.399263,-0.876584,98961.0000
1779273721490879833,2026-05-20 16:12:01.489,-0.027654,2.991262,286.547775,0.035607,-0.004734,0.977140,0.088959,-0.436419,9.653949,0.003548,0.009848,-0.010828,0.203686,-0.397158,-0.876388,98950.0000
1779273721592270092,2026-05-20 16:12:01.590,-0.027400,2.980568,286.609879,0.032822,-0.004692,0.977077,0.151936,-0.139551,9.837247,-0.000700,-0.005707,-0.010495,0.204012,-0.396525,-0.875212,98953.0000
1779273721690107777,2026-05-20 16:12:01.688,-0.022779,2.981721,286.676590,0.034209,-0.003202,0.978479,0.506436,0.004416,9.827358,0.004456,-0.000461,-0.018008,0.204274,-0.397172,-0.877003,98953.0000
1779273721791170314,2026-05-20 16:12:01.789,-0.015194,2.998203,286.749908,0.034282,-0.002635,0.978630,0.189880,0.337692,9.847804,0.003563,-0.006336,-0.017497,0.204836,-0.399288,-0.878166,98957.0000
1779273721892247832,2026-05-20 16:12:01.890,0.001514,3.014748,286.826668,0.037543,-0.004922,0.979566,0.536308,0.096234,9.954897,-0.001053,-0.000275,-0.012127,0.203988,-0.395975,-0.876724,98955.0000
1779273721992194962,2026-05-20 16:12:01.990,0.015588,3.034233,286.904503,0.038020,-0.004159,0.978356,0.820572,0.076639,9.983149,-0.006211,0.006850,-0.017617,0.206385,-0.396248,-0.876479,98961.0000
1779273722091563369,2026-05-20 16:12:02.089,0.019699,3.030048,286.990120,0.033153,-0.006934,0.976122,0.136356,-0.313557,9.868199,-0.003474,-0.013747,-0.012209,0.205491,-0.395659,-0.876470,98958.0000
1779273722190861128,2026-05-20 16:12:02.189,0.003176,3.019415,287.059135,0.041479,-0.006683,0.979802,0.631043,-0.340736,9.891804,0.006944,0.001877,-0.006860,0.206980,-0.394189,-0.877443,98948.0000
1779273722292348425,2026-05-20 16:12:02.290,-0.018642,3.029075,287.118530,0.038079,-0.005172,0.977774,0.643275,0.017259,9.882885,0.010921,0.009448,-0.006934,0.206987,-0.395650,-0.876509,98953.0000
1779273722390129406,2026-05-20 16:12:02.388,-0.038594,3.020436,287.163445,0.034128,-0.002443,0.976318,0.285883,0.132805,9.649149,-0.002614,-0.006569,-0.013642,0.207588,-0.394464,-0.876852,98953.0000
1779273722491180536,2026-05-20 16:12:02.489,-0.042162,3.004180,287.207542,0.038673,-0.000454,0.977496,0.440244,-0.014238,9.627760,-0.001234,0.001036,-0.015206,0.207903,-0.395320,-0.875640,98959.0000
1779273722590988850,2026-05-20 16:12:02.589,-0.024919,3.008045,287.255722,0.034771,-0.002907,0.977406,0.039931,-0.277754,9.659531,-0.003626,-0.002734,-0.004580,0.207315,-0.393835,-0.875661,98956.0000
1779273722690724387,2026-05-20 16:12:02.689,0.003622,3.024914,287.306282,0.038225,-0.003817,0.977932,0.233428,-0.064964,9.668496,-0.005309,-0.010692,-0.003981,0.207881,-0.394472,-0.877159,98951.0000
1779273722791127221,2026-05-20 16:12:02.789,0.017126,3.033424,287.357109,0.036981,-0.004206,0.977805,0.499073,0.020796,9.847081,-0.002975,-0.009922,-0.010086,0.209368,-0.393299,-0.878125,98950.0000
1779273722891018313,2026-05-20 16:12:02.889,0.015062,3.030036,287.424042,0.039443,-0.004093,0.978750,0.115694,0.123896,9.803245,-0.003572,-0.007504,-0.018548,0.209118,-0.392634,-0.875735,98955.0000
1779273722990864258,2026-05-20 16:12:02.989,0.003769,3.031237,287.494354,0.039251,-0.003488,0.978536,0.699663,0.243083,9.804579,-0.002501,0.002584,-0.015492,0.209963,-0.392123,-0.878768,98951.0000
1779273723092377943,2026-05-20 16:12:03.090,-0.004039,3.031002,287.575127,0.035339,-0.004188,0.976711,0.254135,0.090667,9.762489,-0.005451,-0.011627,-0.016740,0.209961,-0.392421,-0.878761,98952.0000
1779273723190974035,2026-05-20 16:12:03.189,0.002330,3.003644,287.657547,0.038658,-0.004444,0.977713,0.272129,0.082364,9.890426,-0.005735,-0.004215,-0.010462,0.210586,-0.390018,-0.878235,98953.0000
1779273723290841906,2026-05-20 16:12:03.289,0.016036,3.006137,287.732346,0.036031,-0.003287,0.977315,0.707591,0.118793,9.880875,0.001138,-0.004544,-0.016187,0.211208,-0.391449,-0.876417,98951.0000
1779273723392071776,2026-05-20 16:12:03.390,0.037487,3.032197,287.800407,0.037695,-0.006174,0.977501,0.286825,-0.150753,9.713698,-0.002128,0.002607,-0.004647,0.212388,-0.390585,-0.877667,98962.0000
1779273723491284794,2026-05-20 16:12:03.489,0.048715,3.065280,287.845055,0.039325,-0.006043,0.978822,0.095667,0.084921,9.780039,0.008538,0.006347,-0.006865,0.211766,-0.390922,-0.878843,98960.0000
1779273723591135998,2026-05-20 16:12:03.589,0.038867,3.075178,287.868988,0.037565,-0.003780,0.977068,0.713360,0.101671,9.669213,0.003329,-0.001688,-0.002035,0.211188,-0.390303,-0.877943,98950.0000
1779273723690615887,2026-05-20 16:12:03.689,0.021613,3.070259,287.880394,0.039998,-0.004614,0.977177,0.204587,0.011182,9.760719,0.003737,-0.011056,0.002305,0.211796,-0.391463,-0.877031,98953.0000
1779273723790517887,2026-05-20 16:12:03.789,0.009190,3.066653,287.867638,0.044234,-0.002214,0.979186,0.117362,0.220826,9.695134,0.007133,0.013557,0.001631,0.212979,-0.390004,-0.878296,98951.0000
1779273723891040720,2026-05-20 16:12:03.889,0.005110,3.032410,287.852295,0.037599,-0.001195,0.977026,0.529909,-0.089727,9.897038,-0.002456,0.002747,-0.001214,0.211220,-0.389663,-0.876460,98953.0000
1779273723990967405,2026-05-20 16:12:03.989,0.006536,2.978253,287.842583,0.036538,-0.003037,0.977966,0.292988,-0.308392,9.754602,0.002908,0.007498,0.001486,0.212435,-0.389331,-0.875599,98957.0000
1779273724090796053,2026-05-20 16:12:04.089,0.022930,2.966154,287.834793,0.037394,-0.001680,0.979784,0.497480,-0.061409,9.897258,0.004382,0.005748,-0.000129,0.213318,-0.390823,-0.875886,98956.0000
1779273724191936053,2026-05-20 16:12:04.190,0.040298,2.982918,287.818245,0.035664,-0.001882,0.977855,0.198576,0.015004,9.755479,-0.005303,-0.000481,0.000290,0.213606,-0.388187,-0.877455,98949.0000
1779273724291049831,2026-05-20 16:12:04.289,0.051353,3.017004,287.798744,0.034884,-0.005325,0.976421,0.456401,-0.229455,9.741594,0.005198,-0.003630,0.005186,0.212708,-0.389961,-0.876791,98949.0000
1779273724390890349,2026-05-20 16:12:04.389,0.047675,3.022015,287.778191,0.042173,-0.002359,0.977607,0.449672,0.115463,9.759834,0.003141,-0.003604,0.004216,0.213602,-0.390550,-0.876799,98957.0000
1779273724490351627,2026-05-20 16:12:04.489,0.047066,3.003071,287.749550,0.043345,-0.002906,0.977708,0.511709,-0.317884,9.844055,0.009893,0.013583,0.004003,0.213606,-0.389955,-0.876813,98957.0000
1779273724591376183,2026-05-20 16:12:04.589,0.044923,2.989875,287.710876,0.035815,-0.002083,0.976533,0.567153,0.065647,9.827362,0.003392,0.000899,0.005881,0.212727,-0.389636,-0.875899,98951.0000
1779273724690698145,2026-05-20 16:12:04.689,0.050808,2.964339,287.661484,0.034473,-0.001779,0.977302,-0.395424,-0.133593,9.501617,0.000154,-0.008311,0.012999,0.212380,-0.392659,-0.877317,98952.0000
1779273724790735553,2026-05-20 16:12:04.789,0.056259,2.935742,287.596313,0.040367,-0.001970,0.980029,0.183314,-0.326479,9.707113,0.004598,0.011412,0.010251,0.212112,-0.390550,-0.876461,98951.0000
1779273724892580053,2026-05-20 16:12:04.890,0.070524,2.936694,287.533150,0.038636,-0.000208,0.979942,0.809076,0.292350,9.904402,-0.000464,0.006733,0.005893,0.211201,-0.391755,-0.876709,98942.0000
1779273724991108312,2026-05-20 16:12:04.989,0.083218,2.931865,287.485275,0.029565,-0.003088,0.975307,0.288952,-0.007166,9.739665,0.000429,-0.016733,0.013958,0.211201,-0.389988,-0.877351,98955.0000
1779273725090679979,2026-05-20 16:12:05.089,0.080867,2.936334,287.445915,0.036953,-0.002164,0.979001,-0.132202,0.224278,9.619087,0.007515,-0.000714,0.004083,0.210606,-0.391164,-0.876708,98957.0000
1779273725190287053,2026-05-20 16:12:05.188,0.079529,2.955102,287.413857,0.040917,-0.002222,0.979449,0.306828,0.170788,9.724154,-0.001904,0.003153,-0.000686,0.211805,-0.391743,-0.876425,98954.0000
1779273725291194608,2026-05-20 16:12:05.289,0.076311,2.989990,287.385887,0.033330,-0.005185,0.975371,0.310885,-0.217021,9.718595,0.009412,-0.012232,0.010019,0.210610,-0.392336,-0.876080,98955.0000
1779273725391209738,2026-05-20 16:12:05.389,0.062452,3.006567,287.364281,0.039711,-0.001173,0.977397,0.408260,0.056336,9.755941,0.000823,-0.011053,0.000706,0.209970,-0.392700,-0.878155,98951.0000
1779273725491006738,2026-05-20 16:12:05.489,0.049957,3.001840,287.342552,0.042004,-0.003172,0.978478,0.497767,-0.093225,9.870133,0.003472,0.006229,0.006826,0.209705,-0.391764,-0.876671,98960.0000
1779273725590440200,2026-05-20 16:12:05.589,0.044168,3.001164,287.313599,0.040446,-0.000674,0.979114,1.098902,0.216860,9.982910,0.008459,0.010913,0.001885,0.210006,-0.391465,-0.876686,98959.0000
1779273725690946108,2026-05-20 16:12:05.689,0.047142,2.965769,287.274368,0.032789,-0.003552,0.977014,0.013020,-0.067301,9.708642,0.010347,-0.003633,0.011725,0.209977,-0.393277,-0.877541,98953.0000
1779273725790931182,2026-05-20 16:12:05.789,0.058808,2.932748,287.223808,0.039528,0.001263,0.978806,0.139875,0.310122,9.705210,-0.000114,0.013150,0.005591,0.210584,-0.391200,-0.877907,98949.0000
1779273725890370145,2026-05-20 16:12:05.889,0.082973,2.943678,287.159157,0.035742,-0.002140,0.976624,0.176665,0.015146,9.744774,0.000959,0.003843,0.011006,0.209377,-0.391811,-0.878161,98955.0000
1779273725991297145,2026-05-20 16:12:05.989,0.102149,2.975498,287.103157,0.032022,-0.000327,0.975077,0.658869,0.274222,9.684215,-0.005012,-0.017678,0.006738,0.208199,-0.394145,-0.876276,98951.0000
1779273726090934108,2026-05-20 16:12:06.089,0.117162,2.990109,287.049873,0.039030,-0.004946,0.978224,-0.224611,0.005725,9.392195,0.005436,-0.012313,0.013406,0.208173,-0.394776,-0.877459,98955.0000
1779273726190917552,2026-05-20 16:12:06.189,0.124525,3.015992,286.996933,0.045401,-0.002222,0.980662,0.539091,0.023539,9.673425,0.003553,0.010955,0.002290,0.207580,-0.393003,-0.877787,98953.0000
1779273726290512163,2026-05-20 16:12:06.289,0.120484,3.023694,286.938896,0.038109,-0.003603,0.977784,0.650984,-0.054210,9.974637,0.003635,0.005100,0.011892,0.206969,-0.394207,-0.878042,98955.0000
1779273726391287496,2026-05-20 16:12:06.389,0.109263,3.003090,286.878845,0.036687,-0.001848,0.976606,0.500626,0.280070,9.743745,-0.002299,-0.003431,0.009985,0.207273,-0.394196,-0.877750,98959.0000
1779273726490767311,2026-05-20 16:12:06.489,0.095267,2.976074,286.817444,0.040701,-0.004521,0.978851,-0.512146,0.004771,9.500932,0.006736,-0.003381,0.016641,0.205206,-0.394461,-0.876192,98957.0000
1779273726590600070,2026-05-20 16:12:06.589,0.094070,2.945864,286.759071,0.044092,-0.000558,0.979695,0.636692,-0.038718,9.781908,0.007767,0.019671,0.006115,0.206107,-0.392977,-0.876550,98950.0000
1779273726691079052,2026-05-20 16:12:06.689,0.106030,2.927202,286.703217,0.034198,0.000003,0.975909,0.676275,0.075904,9.923917,-0.005629,0.003263,0.010630,0.207575,-0.393012,-0.878086,98950.0000
1779273726791105552,2026-05-20 16:12:06.789,0.115178,2.899491,286.646896,0.034305,-0.001188,0.976061,1.057969,0.336505,10.034616,-0.005609,-0.005060,0.006570,0.207298,-0.394746,-0.876238,98946.0000
1779273726890935422,2026-05-20 16:12:06.889,0.130575,2.894301,286.595200,0.038805,-0.004346,0.979051,-0.529943,-0.073174,9.466883,0.007453,0.013530,0.016990,0.206094,-0.394176,-0.876821,98960.0000
1779273726990337088,2026-05-20 16:12:06.989,0.139236,2.918319,286.546989,0.037710,-0.002536,0.978838,0.447616,0.124666,9.906616,0.005716,0.006087,0.008882,0.206075,-0.395384,-0.877391,98959.0000
1779273727091140885,2026-05-20 16:12:07.089,0.130020,2.918244,286.495132,0.034123,-0.003916,0.976239,0.557558,-0.340380,9.878963,0.008605,-0.004897,0.017132,0.205211,-0.395336,-0.875571,98953.0000
1779273727190788718,2026-05-20 16:12:07.189,0.114857,2.908762,286.421295,0.038758,-0.002116,0.977932,0.497312,0.251495,9.686468,-0.002527,-0.009719,0.016226,0.203707,-0.395652,-0.875825,98960.0000
1779273727292427811,2026-05-20 16:12:07.290,0.110470,2.922428,286.330849,0.042146,-0.003434,0.979245,0.068625,-0.102236,9.761530,0.012774,0.008794,0.020486,0.203997,-0.397138,-0.875797,98956.0000
1779273727392702014,2026-05-20 16:12:07.390,0.111891,2.919087,286.240250,0.037332,0.000610,0.977746,0.535978,-0.054646,9.825782,0.005718,0.007329,0.017573,0.204010,-0.395939,-0.875526,98956.0000
1779273727491178033,2026-05-20 16:12:07.489,0.126853,2.918676,286.165649,0.036006,-0.000624,0.976818,0.351406,-0.160406,9.720221,0.003957,-0.009045,0.013691,0.203685,-0.395688,-0.877024,98953.0000
1779273727591016088,2026-05-20 16:12:07.589,0.149155,2.922964,286.103569,0.040590,-0.001111,0.978371,0.991273,0.168883,9.904122,-0.005296,-0.006665,0.005323,0.203997,-0.397138,-0.875797,98956.0000
1779273727690433792,2026-05-20 16:12:07.689,0.173265,2.930849,286.053955,0.038697,-0.003859,0.977717,-0.076353,-0.254469,9.684554,-0.001218,0.005739,0.010024,0.202484,-0.397174,-0.876657,98957.0000
1779273727791118125,2026-05-20 16:12:07.789,0.171754,2.921631,286.026100,0.039314,-0.002450,0.977837,0.561563,-0.190817,9.870337,0.003408,0.002490,0.005562,0.201871,-0.397791,-0.877227,98953.0000
1779273727890931829,2026-05-20 16:12:07.889,0.153732,2.922173,286.013702,0.040455,-0.003870,0.978125,0.590438,-0.347196,9.814747,0.010871,0.006756,-0.001020,0.203400,-0.396844,-0.875789,98954.0000
1779273727990862255,2026-05-20 16:12:07.989,0.136158,2.936704,286.009071,0.036426,-0.001398,0.976977,0.785493,0.302481,10.040828,-0.003231,-0.004973,-0.008582,0.201588,-0.396882,-0.876641,98953.0000
1779273728090359051,2026-05-20 16:12:08.089,0.132699,2.928121,286.005402,0.035717,-0.003611,0.976690,-0.137942,-0.130707,9.702801,0.001496,-0.003080,0.005439,0.202204,-0.396851,-0.875758,98963.0000
1779273728191040588,2026-05-20 16:12:08.189,0.139829,2.899267,285.987206,0.044739,-0.001750,0.980047,0.674423,0.134017,9.919886,0.002743,0.011173,0.007460,0.202772,-0.398074,-0.876943,98957.0000
1779273728291173847,2026-05-20 16:12:08.289,0.160987,2.893599,285.957817,0.038574,-0.003626,0.978017,0.147154,-0.350004,9.880030,0.006786,0.011243,0.006804,0.200681,-0.398375,-0.876583,98956.0000
1779273728390371995,2026-05-20 16:12:08.389,0.175654,2.870442,285.921646,0.030632,-0.003873,0.975616,0.357352,0.011299,9.805286,0.001358,-0.013188,0.009659,0.200994,-0.396290,-0.876640,98955.0000
1779273728491310643,2026-05-20 16:12:08.489,0.173057,2.839029,285.887253,0.039949,-0.003396,0.978786,-0.238701,-0.261061,9.516072,-0.001844,-0.000496,0.003075,0.201268,-0.398390,-0.877197,98952.0000
1779273728590784828,2026-05-20 16:12:08.589,0.155509,2.848268,285.849953,0.042186,-0.003783,0.980196,0.634031,-0.165538,9.826694,0.004855,0.004684,0.006282,0.201875,-0.397196,-0.877241,98957.0000
1779273728690732810,2026-05-20 16:12:08.689,0.139819,2.842927,285.830917,0.034817,-0.001846,0.976951,0.433229,0.129259,9.911719,0.009273,-0.001024,-0.000683,0.201581,-0.398073,-0.876613,98957.0000
1779273728791942587,2026-05-20 16:12:08.790,0.128652,2.831825,285.821320,0.036689,-0.001555,0.976345,0.410980,-0.147828,9.777911,0.008573,-0.004070,-0.006149,0.201906,-0.397439,-0.875437,98949.0000
1779273728891201939,2026-05-20 16:12:08.889,0.127869,2.825482,285.810806,0.036773,-0.002699,0.977312,0.130057,-0.390796,9.737009,-0.000101,-0.004281,0.004117,0.202478,-0.398067,-0.876636,98955.0000
1779273728991005495,2026-05-20 16:12:08.989,0.133845,2.817585,285.813782,0.038254,-0.003222,0.978483,0.282619,0.027459,9.893185,-0.001562,0.000373,0.001037,0.201280,-0.397488,-0.876919,98960.0000
1779273729090453772,2026-05-20 16:12:09.089,0.149122,2.841396,285.816818,0.038587,-0.002027,0.976588,0.372824,-0.040344,9.772424,-0.001449,-0.000193,0.000250,0.201569,-0.398974,-0.876891,98945.0000
1779273729194020402,2026-05-20 16:12:09.189,0.156734,2.840396,285.825623,0.035381,-0.002078,0.977225,0.511999,-0.158954,9.831872,0.003172,-0.007029,-0.008767,0.201562,-0.398397,-0.877504,98956.0000
1779273729290930272,2026-05-20 16:12:09.289,0.158949,2.817599,285.842583,0.037487,-0.003720,0.978323,0.202747,0.080792,9.813361,-0.000272,0.000891,-0.003171,0.203677,-0.396878,-0.876995,98958.0000
1779273729390854494,2026-05-20 16:12:09.389,0.157148,2.811466,285.868912,0.040119,-0.003669,0.979484,0.121831,0.315785,9.636680,0.004532,0.011483,-0.011893,0.201886,-0.395410,-0.877284,98947.0000
1779273729490276624,2026-05-20 16:12:09.488,0.150038,2.847532,285.904289,0.033687,-0.001820,0.976888,0.726617,0.128426,9.759634,-0.002068,-0.002677,-0.010562,0.202181,-0.396887,-0.876956,98951.0000
1779273729591214624,2026-05-20 16:12:09.589,0.138644,2.885622,285.946434,0.034295,-0.004857,0.975970,0.316253,-0.139979,9.713362,0.005934,-0.021240,-0.002677,0.203664,-0.398078,-0.877265,98956.0000
1779273729691029142,2026-05-20 16:12:09.689,0.128963,2.890808,286.010323,0.046539,-0.002789,0.980309,0.025249,0.181852,9.638445,0.007659,0.000394,-0.016357,0.202786,-0.395107,-0.877314,98953.0000
1779273729792340568,2026-05-20 16:12:09.790,0.140433,2.904148,286.069527,0.041666,-0.000879,0.976183,0.519235,0.080503,9.687698,0.000936,0.001875,-0.014964,0.203685,-0.397455,-0.876381,98954.0000
1779273729892259494,2026-05-20 16:12:09.890,0.153549,2.888232,286.135887,0.035939,-0.004810,0.975416,0.398206,-0.018521,9.955303,-0.003199,-0.004604,-0.008779,0.203717,-0.394164,-0.875861,98960.0000
1779273729991112790,2026-05-20 16:12:09.989,0.171521,2.869623,286.206352,0.040254,-0.003135,0.979545,0.421659,0.093595,9.974031,-0.004031,-0.008664,-0.011364,0.203674,-0.395706,-0.877623,98959.0000
1779273730090985327,2026-05-20 16:12:10.089,0.184034,2.864697,286.282852,0.041335,-0.005351,0.979494,0.096906,-0.272008,9.767943,0.000535,0.005604,-0.019877,0.206065,-0.395989,-0.877677,98952.0000
1779273730190524846,2026-05-20 16:12:10.189,0.186618,2.865769,286.361359,0.035262,-0.005567,0.978130,0.154873,0.246728,9.868645,0.002489,-0.004471,-0.010415,0.205454,-0.394541,-0.878895,98947.0000
1779273730291111272,2026-05-20 16:12:10.289,0.190072,2.851122,286.441994,0.039587,-0.005165,0.977860,-0.055195,0.052376,9.655675,0.000448,-0.006523,-0.015815,0.207881,-0.394472,-0.877159,98953.0000
1779273730390985698,2026-05-20 16:12:10.389,0.189517,2.823403,286.513367,0.041437,-0.005974,0.978724,0.158582,0.140023,9.754232,0.002641,0.009824,-0.003881,0.208781,-0.393285,-0.877511,98948.0000
1779273730492543309,2026-05-20 16:12:10.490,0.186397,2.788104,286.570183,0.036598,-0.004129,0.976494,0.781599,0.307010,9.952976,0.002127,0.004321,-0.011792,0.207291,-0.393285,-0.877173,98955.0000
1779273730590293457,2026-05-20 16:12:10.589,0.179972,2.766048,286.619820,0.034528,-0.004835,0.976124,0.103277,-0.145368,9.705094,-0.000776,0.002242,-0.003935,0.207893,-0.393570,-0.876881,98948.0000
1779273730691149957,2026-05-20 16:12:10.689,0.173360,2.761925,286.662437,0.036720,-0.003702,0.978556,0.241053,0.094286,9.851233,0.001411,0.004083,-0.006999,0.207615,-0.391182,-0.876632,98951.0000
1779273730792388383,2026-05-20 16:12:10.790,0.166094,2.787036,286.690933,0.037865,-0.003940,0.978414,0.622128,-0.125860,9.933343,0.002636,-0.002647,-0.008767,0.208818,-0.393519,-0.875406,98959.0000
1779273730892233327,2026-05-20 16:12:10.890,0.165413,2.812962,286.708130,0.034072,-0.004634,0.977847,0.297253,0.153507,9.792785,0.007631,-0.007963,0.000597,0.208488,-0.391510,-0.877846,98955.0000
1779273730991255419,2026-05-20 16:12:10.989,0.169877,2.818097,286.721794,0.039228,-0.003146,0.978894,0.218057,0.099808,9.767014,-0.002642,-0.006936,0.002447,0.208154,-0.394217,-0.878672,98952.0000
1779273731091016716,2026-05-20 16:12:11.089,0.171839,2.834414,286.708496,0.041728,-0.004859,0.978657,0.605150,-0.213574,9.971862,0.006148,0.000897,0.011795,0.208497,-0.391790,-0.877239,98954.0000
1779273731190605975,2026-05-20 16:12:11.189,0.164280,2.828560,286.696800,0.039542,-0.001912,0.976853,0.749615,0.225033,9.971688,0.009456,0.004703,-0.001474,0.209086,-0.392390,-0.877540,98949.0000
1779273731290552771,2026-05-20 16:12:11.289,0.147502,2.805368,286.688095,0.036998,-0.003890,0.976305,0.189329,-0.461051,9.744376,0.008451,0.003351,0.007282,0.208773,-0.392708,-0.878124,98955.0000
1779273731390971660,2026-05-20 16:12:11.389,0.124786,2.773641,286.680351,0.037404,-0.001579,0.977947,0.026921,-0.040803,9.744931,0.005096,0.003505,-0.000700,0.208196,-0.393857,-0.876582,98953.0000
1779273731490898141,2026-05-20 16:12:11.489,0.117029,2.784733,286.674232,0.038481,0.000584,0.978950,0.672250,-0.174757,10.013443,0.000483,0.001292,0.000193,0.207900,-0.393263,-0.876589,98949.0000
1779273731592347234,2026-05-20 16:12:11.590,0.128864,2.819918,286.666122,0.035083,-0.002561,0.976400,0.478736,-0.080517,9.982635,0.003953,-0.010617,0.005341,0.208179,-0.393000,-0.877802,98949.0000
1779273731691573956,2026-05-20 16:12:11.690,0.145375,2.862801,286.660873,0.038263,-0.000959,0.977475,0.091215,-0.044160,9.710417,0.002117,-0.010369,-0.001847,0.207897,-0.390323,-0.877859,98952.0000
1779273731790926752,2026-05-20 16:12:11.789,0.158717,2.879578,286.662636,0.042295,-0.002966,0.978418,0.048001,-0.325226,9.674740,0.002759,0.006508,0.000987,0.208779,-0.391815,-0.878146,98950.0000
1779273731892368437,2026-05-20 16:12:11.890,0.173937,2.880757,286.670166,0.039923,-0.002940,0.978293,0.888874,0.138062,10.023678,-0.002084,-0.000759,0.000580,0.208491,-0.393566,-0.876896,98952.0000
1779273731992289345,2026-05-20 16:12:11.990,0.181388,2.863985,286.659103,0.041149,-0.005236,0.977749,0.029373,-0.355687,9.461525,0.006319,-0.000394,0.009526,0.208164,-0.392729,-0.878708,98954.0000
1779273732090849511,2026-05-20 16:12:12.089,0.171604,2.816751,286.630875,0.041370,-0.002557,0.978551,0.186267,0.079731,9.686990,0.007005,0.009673,0.005507,0.207588,-0.393581,-0.877173,98951.0000
1779273732190757048,2026-05-20 16:12:12.189,0.160690,2.805957,286.599060,0.035970,-0.001107,0.976851,0.690207,-0.079896,9.941698,0.001781,-0.001311,-0.001680,0.208190,-0.392098,-0.877524,98956.0000
1779273732290621548,2026-05-20 16:12:12.289,0.155756,2.803038,286.578003,0.031901,-0.002571,0.975528,0.314096,0.194598,9.731192,0.003002,-0.014221,0.002457,0.208160,-0.392441,-0.879015,98958.0000
1779273732391195400,2026-05-20 16:12:12.389,0.157577,2.825428,286.565048,0.041420,-0.000405,0.978938,0.387808,0.076211,9.728868,-0.003230,0.001012,-0.001513,0.209102,-0.393247,-0.876320,98957.0000
1779273732490912770,2026-05-20 16:12:12.489,0.164108,2.844273,286.551857,0.037925,-0.001587,0.977872,0.548880,-0.197746,9.707643,0.002928,-0.002982,0.002709,0.208220,-0.393523,-0.875391,98955.0000
1779273732590859715,2026-05-20 16:12:12.589,0.166142,2.863820,286.552963,0.036374,-0.001682,0.977384,0.701593,-0.024221,9.879292,0.000011,-0.017088,-0.006472,0.207588,-0.392697,-0.877494,98956.0000
1779273732690302900,2026-05-20 16:12:12.689,0.169959,2.882998,286.578697,0.044359,-0.003262,0.979496,0.234928,-0.262475,9.821688,-0.005117,-0.010276,-0.011814,0.206995,-0.393575,-0.876858,98953.0000
1779273732790986067,2026-05-20 16:12:12.789,0.169729,2.884796,286.616379,0.045163,-0.003426,0.979732,0.169387,-0.050050,9.882827,0.006556,0.013621,-0.012780,0.207629,-0.392336,-0.875405,98957.0000
1779273732890824659,2026-05-20 16:12:12.889,0.170489,2.869009,286.661171,0.040296,-0.001689,0.976266,0.423486,0.167090,9.757409,-0.003284,0.005495,-0.013299,0.209080,-0.393283,-0.877518,98958.0000
1779273732992210696,2026-05-20 16:12:12.990,0.174893,2.842300,286.703957,0.037918,-0.005597,0.976079,0.249769,0.068331,9.720281,-0.001103,-0.006957,-0.003732,0.209075,-0.392408,-0.878139,98953.0000
1779273733090530696,2026-05-20 16:12:13.089,0.178606,2.789056,286.751617,0.045817,-0.003162,0.979230,0.111797,0.090369,9.525977,-0.002883,0.010282,-0.012958,0.210301,-0.392942,-0.876358,98957.0000
1779273733191177992,2026-05-20 16:12:13.189,0.183621,2.755192,286.806007,0.040075,-0.004765,0.978654,0.408924,0.141565,9.829391,-0.000634,0.007828,-0.008723,0.210290,-0.392076,-0.877278,98956.0000
1779273733291050863,2026-05-20 16:12:13.289,0.179266,2.715816,286.862877,0.034415,-0.003375,0.976511,0.649203,0.228685,9.719005,-0.006561,-0.006505,-0.013895,0.209695,-0.392368,-0.876956,98950.0000
1779273733390504807,2026-05-20 16:12:13.389,0.173731,2.694811,286.916275,0.038108,-0.006426,0.978130,-0.369901,0.153656,9.537282,-0.001325,-0.011467,-0.009931,0.209412,-0.390874,-0.876685,98963.0000
1779273733491129325,2026-05-20 16:12:13.489,0.174178,2.705680,286.959610,0.043367,-0.003751,0.979903,0.534461,0.132728,9.880841,0.004394,0.011492,-0.010605,0.211205,-0.391160,-0.876724,98951.0000
1779273733590912492,2026-05-20 16:12:13.589,0.179355,2.700162,286.993149,0.035651,-0.004944,0.976802,0.739068,-0.098411,9.996571,0.004282,0.006760,-0.003328,0.212093,-0.389991,-0.877674,98953.0000
1779273733690434344,2026-05-20 16:12:13.689,0.182933,2.641398,287.026001,0.032391,-0.003164,0.976805,0.167132,0.392994,9.850462,-0.000242,-0.015083,-0.010631,0.211526,-0.391122,-0.875533,98947.0000
1779273733790379121,2026-05-20 16:12:13.788,0.184467,2.587430,287.046272,0.039644,-0.005223,0.979477,-0.078059,-0.231946,9.552521,-0.000002,0.008087,-0.003150,0.213314,-0.389650,-0.876514,98957.0000
1779273733891161214,2026-05-20 16:12:13.889,0.179248,2.564060,287.065239,0.036063,-0.003549,0.979266,0.486264,0.021795,9.933542,0.011997,0.020753,-0.006239,0.213288,-0.391165,-0.877376,98955.0000
1779273733991118955,2026-05-20 16:12:13.989,0.173543,2.570178,287.087173,0.027681,-0.000957,0.975649,0.684062,-0.087146,9.835943,-0.007706,-0.013202,-0.011704,0.213314,-0.390534,-0.876193,98954.0000
1779273734090529677,2026-05-20 16:12:14.089,0.174829,2.605804,287.119263,0.032839,-0.003498,0.976428,0.325645,0.088565,9.694237,-0.001950,-0.020797,-0.005040,0.212708,-0.389077,-0.877112,98955.0000
1779273734191289232,2026-05-20 16:12:14.189,0.182628,2.661090,287.158775,0.042656,-0.003399,0.979670,-0.238830,-0.117896,9.442106,0.005677,0.002834,-0.009093,0.213615,-0.389351,-0.876528,98953.0000
1779273734291121195,2026-05-20 16:12:14.289,0.193648,2.710126,287.202194,0.038760,-0.003397,0.977861,0.486198,0.145538,9.827693,0.003614,0.002083,-0.011842,0.211502,-0.390572,-0.877045,98950.0000
1779273734390960177,2026-05-20 16:12:14.389,0.197348,2.710939,287.244347,0.037362,-0.004555,0.976266,0.728707,-0.181964,9.836744,-0.004359,-0.007909,-0.013059,0.212688,-0.388815,-0.878317,98958.0000
1779273734490484621,2026-05-20 16:12:14.489,0.185441,2.700008,287.277519,0.036356,-0.005447,0.977872,-0.167056,0.225646,9.635663,0.001494,-0.004275,-0.008104,0.214218,-0.389636,-0.876237,98959.0000
1779273734591310399,2026-05-20 16:12:14.589,0.169677,2.696103,287.309525,0.041493,-0.003598,0.978897,0.019200,-0.005727,9.516495,-0.000323,0.004453,-0.007139,0.213322,-0.387576,-0.876864,98953.0000
1779273734692665010,2026-05-20 16:12:14.691,0.155058,2.689466,287.332726,0.035062,-0.002415,0.978279,0.276295,0.235927,9.821362,0.006880,-0.001096,-0.008015,0.214510,-0.387289,-0.877500,98950.0000
1779273734790474473,2026-05-20 16:12:14.789,0.164393,2.685230,287.337860,0.034477,-0.001052,0.977234,0.546381,-0.030694,9.949572,-0.006982,-0.012391,-0.007684,0.213610,-0.386708,-0.877791,98953.0000
1779273734891421565,2026-05-20 16:12:14.890,0.181461,2.697665,287.320488,0.037733,-0.004129,0.978152,0.181841,0.177424,9.777818,0.001104,-0.013156,0.002720,0.214216,-0.388166,-0.876872,98951.0000
1779273734990852880,2026-05-20 16:12:14.989,0.195338,2.719276,287.299431,0.041372,-0.002337,0.978075,-0.254301,-0.141696,9.593458,0.004076,0.004648,0.003912,0.214182,-0.389103,-0.878348,98953.0000
1779273735092563621,2026-05-20 16:12:15.091,0.194280,2.736914,287.282845,0.041145,-0.002812,0.977942,0.697179,-0.116071,9.967041,0.005807,0.000901,-0.004125,0.214513,-0.388461,-0.876873,98951.0000
1779273735190743269,2026-05-20 16:12:15.189,0.192028,2.755833,287.283821,0.038944,-0.001323,0.976716,0.457134,-0.193609,9.864824,0.000476,-0.001446,-0.002320,0.212985,-0.389111,-0.878317,98946.0000
1779273735291151232,2026-05-20 16:12:15.289,0.196186,2.748365,287.292427,0.037036,-0.003135,0.977845,0.319513,0.176641,9.707007,-0.002174,-0.007365,0.003647,0.213870,-0.389421,-0.878932,98955.0000
1779273735390904991,2026-05-20 16:12:15.389,0.206358,2.725041,287.309151,0.043490,-0.002269,0.980117,0.306027,-0.151929,9.688587,0.001281,0.009350,-0.000393,0.215392,-0.388781,-0.877787,98957.0000
1779273735492456176,2026-05-20 16:12:15.491,0.218432,2.689494,287.327827,0.039050,-0.002469,0.978532,0.417917,0.081074,9.668526,-0.000587,0.002031,-0.005591,0.214809,-0.387287,-0.877508,98955.0000
1779273735591484361,2026-05-20 16:12:15.590,0.226921,2.656695,287.348587,0.037290,-0.004053,0.976575,0.621049,-0.115512,9.840301,-0.000496,-0.003215,-0.003301,0.214799,-0.387892,-0.877793,98951.0000
1779273735690970213,2026-05-20 16:12:15.689,0.218559,2.647021,287.356895,0.034590,-0.003796,0.976614,0.338859,0.128893,9.694635,0.004753,-0.003301,0.001332,0.216314,-0.387558,-0.876940,98953.0000
1779273735792195972,2026-05-20 16:12:15.791,0.208681,2.652600,287.358215,0.038043,-0.004461,0.978409,-0.127315,-0.170706,9.669816,0.007304,0.002439,0.002425,0.216269,-0.388514,-0.879015,98956.0000
1779273735892099583,2026-05-20 16:12:15.890,0.198058,2.650132,287.345909,0.038560,-0.001148,0.978391,0.700456,0.154023,9.830703,0.003392,0.002243,-0.002198,0.215105,-0.390234,-0.876545,98952.0000
1779273735991373935,2026-05-20 16:12:15.989,0.191657,2.650374,287.333527,0.036388,-0.002715,0.977531,0.434281,-0.100504,9.918568,0.001633,-0.003935,0.003550,0.216015,-0.387559,-0.876932,98959.0000
1779273736090797435,2026-05-20 16:12:16.089,0.203788,2.647658,287.328613,0.035943,-0.000511,0.977902,0.622653,0.235743,9.778627,-0.010844,-0.007409,-0.001649,0.214214,-0.387579,-0.877186,98946.0000
1779273736192404342,2026-05-20 16:12:16.191,0.228147,2.636388,287.316338,0.037312,-0.003699,0.978571,-0.067659,0.066053,9.722470,-0.005823,-0.003393,0.006384,0.216003,-0.388461,-0.877210,98954.0000
1779273736290362564,2026-05-20 16:12:16.289,0.245241,2.651475,287.297333,0.041511,-0.002717,0.978475,0.618492,0.127268,9.888630,0.005180,0.007306,0.001973,0.214750,-0.388559,-0.880175,98947.0000
1779273736391520250,2026-05-20 16:12:16.389,0.246003,2.671070,287.282913,0.035874,-0.003395,0.976367,0.460707,0.097626,9.840239,0.003195,-0.003014,0.005517,0.214816,-0.387865,-0.876895,98953.0000
1779273736491113879,2026-05-20 16:12:16.489,0.229321,2.693528,287.274841,0.038449,-0.003194,0.976836,0.689356,0.186176,9.817771,0.004549,-0.006144,0.003269,0.214765,-0.388830,-0.879270,98951.0000
1779273736590588361,2026-05-20 16:12:16.589,0.211850,2.706482,287.245193,0.042407,-0.005730,0.977311,-0.087046,0.060743,9.622454,0.008070,0.001814,0.012691,0.213589,-0.389982,-0.877712,98956.0000
1779273736691188083,2026-05-20 16:12:16.689,0.193592,2.697204,287.210205,0.043335,-0.000716,0.979119,0.719166,0.092437,10.014793,0.009767,0.015700,0.008613,0.213892,-0.389385,-0.877734,98950.0000
1779273736790985675,2026-05-20 16:12:16.789,0.198669,2.655760,287.174370,0.035683,0.000960,0.976932,0.557528,-0.124341,9.991164,0.000111,0.006625,0.008700,0.214501,-0.389363,-0.877150,98953.0000
1779273736890881083,2026-05-20 16:12:16.889,0.212251,2.583205,287.132812,0.035266,-0.001828,0.978494,0.073619,0.121078,9.863240,-0.001094,-0.002363,0.014386,0.214808,-0.389055,-0.876866,98951.0000
1779273736990396027,2026-05-20 16:12:16.989,0.231299,2.547534,287.093208,0.037620,-0.001105,0.979236,0.147146,-0.068940,9.721265,0.001949,0.006906,0.006577,0.213006,-0.389372,-0.877112,98947.0000
1779273737091068971,2026-05-20 16:12:17.089,0.247244,2.562223,287.076408,0.034441,-0.003211,0.977833,0.417561,-0.371761,9.889836,0.006163,-0.002135,0.005191,0.214214,-0.388463,-0.876865,98947.0000
1779273737190804694,2026-05-20 16:12:17.189,0.246128,2.590153,287.087166,0.034930,-0.003242,0.976988,0.391069,0.107916,9.786758,0.003595,-0.013996,-0.003989,0.214500,-0.387893,-0.877786,98955.0000
1779273737292172860,2026-05-20 16:12:17.290,0.234023,2.633662,287.124702,0.040640,-0.003832,0.977314,-0.044259,-0.046684,9.706650,0.004851,-0.005795,-0.005087,0.213311,-0.387594,-0.877463,98949.0000
1779273737391357230,2026-05-20 16:12:17.389,0.214531,2.641661,287.169197,0.041281,-0.003467,0.977297,0.313370,0.002148,9.810012,0.015562,0.010231,-0.006194,0.214205,-0.387300,-0.877792,98954.0000
1779273737491190045,2026-05-20 16:12:17.489,0.199924,2.635193,287.205948,0.039506,-0.002035,0.977508,1.028388,0.097633,10.065628,0.002424,0.006614,-0.010187,0.212999,-0.387911,-0.878047,98952.0000
1779273737590897286,2026-05-20 16:12:17.589,0.195099,2.624974,287.238083,0.037422,-0.004633,0.976840,0.318133,-0.064586,9.782934,0.007549,-0.002611,-0.000253,0.213910,-0.386707,-0.877799,98953.0000
1779273737690593897,2026-05-20 16:12:17.689,0.205316,2.608343,287.265205,0.040352,-0.001181,0.979426,0.317457,0.008999,9.894957,0.002264,0.001866,-0.005707,0.214517,-0.386982,-0.877208,98949.0000
1779273737791028564,2026-05-20 16:12:17.789,0.222249,2.593175,287.276894,0.037162,-0.003787,0.978730,0.565797,-0.275354,9.917836,0.006276,0.008449,0.003301,0.213601,-0.387313,-0.878076,98955.0000
1779273737890946286,2026-05-20 16:12:17.889,0.239324,2.570320,287.275131,0.034940,-0.002535,0.978504,0.978873,-0.078603,9.896467,0.002029,0.007824,0.000792,0.215698,-0.388472,-0.877502,98953.0000
1779273737992496026,2026-05-20 16:12:17.990,0.250270,2.552635,287.257088,0.032474,-0.005261,0.977688,0.144841,-0.164271,9.589932,0.000772,-0.006008,0.004458,0.215695,-0.388184,-0.877809,98951.0000
1779273738091072008,2026-05-20 16:12:18.089,0.249504,2.542345,287.225372,0.041589,-0.002312,0.979166,0.425798,-0.121848,9.652692,0.005068,0.003567,0.003161,0.214226,-0.387561,-0.876587,98960.0000
1779273738191087360,2026-05-20 16:12:18.189,0.242480,2.539853,287.183105,0.034848,-0.002197,0.976322,0.424259,-0.318996,9.816488,0.008497,0.006151,0.011142,0.216018,-0.388732,-0.876304,98953.0000
1779273738290903285,2026-05-20 16:12:18.289,0.238319,2.552227,287.138809,0.037263,-0.001187,0.976592,0.689274,0.036353,9.704533,0.002862,-0.002001,0.008613,0.215416,-0.388447,-0.876596,98949.0000
1779273738390412508,2026-05-20 16:12:18.389,0.232934,2.544685,287.094582,0.038174,-0.004612,0.978018,-0.031994,-0.133851,9.648737,-0.000654,-0.000844,0.007498,0.214496,-0.388488,-0.877771,98953.0000
1779273738491358230,2026-05-20 16:12:18.490,0.225218,2.520151,287.052223,0.036989,-0.000289,0.978257,0.235767,0.002958,9.765445,-0.002796,0.006151,0.003128,0.215388,-0.388492,-0.878094,98944.0000
1779273738591440174,2026-05-20 16:12:18.589,0.228708,2.537907,287.013298,0.032770,-0.001505,0.976580,0.552969,-0.323798,9.847197,-0.005551,-0.004931,0.008303,0.213606,-0.389071,-0.877134,98954.0000
1779273738692576952,2026-05-20 16:12:18.690,0.223242,2.564109,286.966782,0.034342,-0.001344,0.978510,0.403132,0.328933,9.890393,-0.001285,-0.017026,0.006882,0.213621,-0.388458,-0.876550,98959.0000
1779273738791370748,2026-05-20 16:12:18.790,0.219446,2.608802,286.924232,0.039862,-0.002278,0.979443,0.081556,-0.235764,9.749218,0.006163,-0.001767,0.010818,0.212391,-0.389403,-0.877995,98957.0000
1779273738891173452,2026-05-20 16:12:18.889,0.218004,2.632059,286.890923,0.041908,0.000670,0.978563,0.661600,0.077286,9.842201,0.001983,0.002513,0.003569,0.212710,-0.389663,-0.876798,98952.0000
1779273738991039192,2026-05-20 16:12:18.989,0.231663,2.622536,286.874504,0.042702,-0.000394,0.977311,0.833918,-0.321838,10.064665,-0.007323,0.003792,-0.005468,0.213006,-0.388489,-0.877433,98962.0000
1779273739090380026,2026-05-20 16:12:19.089,0.245481,2.589970,286.868271,0.038543,-0.002664,0.975787,0.665642,0.057006,9.852081,-0.004715,-0.005094,0.002036,0.213604,-0.388485,-0.877448,98951.0000
1779273739191052322,2026-05-20 16:12:19.189,0.260145,2.567367,286.869545,0.040744,-0.004464,0.977307,-0.348693,-0.231280,9.528291,0.007441,0.006239,0.005562,0.213570,-0.390306,-0.878604,98955.0000
1779273739290909822,2026-05-20 16:12:19.289,0.263418,2.552106,286.872200,0.038724,-0.002585,0.977794,0.607317,-0.049469,9.787695,0.001139,0.010273,-0.005685,0.213883,-0.389105,-0.878340,98954.0000
1779273739392570989,2026-05-20 16:12:19.391,0.262554,2.539457,286.875870,0.034239,-0.004176,0.976819,0.603578,-0.192464,9.821174,-0.000778,-0.004884,-0.001981,0.213608,-0.388774,-0.877142,98951.0000
1779273739492263544,2026-05-20 16:12:19.490,0.253327,2.546844,286.862946,0.036911,-0.003164,0.978399,0.500877,-0.114364,9.757249,-0.003652,-0.007894,-0.001498,0.214199,-0.389076,-0.877449,98955.0000
1779273739591290729,2026-05-20 16:12:19.589,0.240953,2.548054,286.853729,0.037115,-0.002196,0.979189,-0.271461,0.347504,9.705504,-0.000440,-0.006147,-0.000229,0.213305,-0.389371,-0.877120,98957.0000
1779273739692499266,2026-05-20 16:12:19.691,0.243285,2.529485,286.850464,0.042097,-0.001497,0.978621,0.426192,-0.040629,9.927768,-0.003673,0.003830,-0.002380,0.213888,-0.389096,-0.878041,98957.0000
1779273739792384210,2026-05-20 16:12:19.790,0.250812,2.512142,286.832520,0.036202,-0.002736,0.976589,0.846109,-0.136899,9.844925,-0.005977,-0.002540,0.000511,0.214204,-0.389951,-0.876829,98960.0000
1779273739891330729,2026-05-20 16:12:19.890,0.262990,2.510346,286.800484,0.036706,-0.002371,0.977716,0.704059,-0.240074,9.912759,0.002687,0.001283,0.004850,0.213907,-0.389656,-0.876828,98964.0000
1779273739991121914,2026-05-20 16:12:19.989,0.270427,2.498601,286.761177,0.034205,-0.003127,0.977615,0.609295,0.120667,9.854877,0.004695,-0.007879,0.011200,0.214511,-0.387875,-0.877186,98951.0000
1779273740090862525,2026-05-20 16:12:20.089,0.272267,2.490143,286.722900,0.038466,-0.003604,0.978382,-0.111616,-0.423096,9.642789,-0.001602,-0.001539,0.004199,0.211792,-0.389407,-0.877980,98958.0000
1779273740190574599,2026-05-20 16:12:20.189,0.270808,2.497064,286.671982,0.039032,-0.002082,0.979040,0.601329,0.186321,9.805574,0.002639,0.012150,0.008770,0.210910,-0.389683,-0.877051,98952.0000
1779273740291117618,2026-05-20 16:12:20.289,0.266082,2.505099,286.611763,0.034511,-0.003015,0.977084,0.528028,-0.272667,9.876016,0.002802,0.001070,0.013477,0.212118,-0.389657,-0.876483,98954.0000
1779273740390987766,2026-05-20 16:12:20.389,0.256247,2.503556,286.552666,0.033788,-0.000915,0.977549,0.058956,0.226255,9.738950,0.005229,-0.016782,0.006347,0.212422,-0.390531,-0.875870,98957.0000
1779273740490435247,2026-05-20 16:12:20.489,0.256084,2.495954,286.504028,0.041290,-0.002318,0.978935,-0.082757,-0.217039,9.571830,-0.001559,0.005229,0.012589,0.211495,-0.390879,-0.877337,98950.0000
1779273740591338377,2026-05-20 16:12:20.590,0.262574,2.500494,286.465523,0.039878,-0.000945,0.978241,0.896101,0.054756,9.922849,0.000267,0.011915,0.007781,0.212101,-0.390568,-0.877060,98964.0000
1779273740690929117,2026-05-20 16:12:20.689,0.263836,2.499907,286.426476,0.033324,-0.001346,0.975518,0.286150,-0.171820,9.720750,-0.004579,-0.008988,0.006065,0.210625,-0.389955,-0.876138,98953.0000
1779273740792606302,2026-05-20 16:12:20.791,0.261594,2.495286,286.392113,0.036569,-0.001066,0.976712,0.572650,0.266073,9.708600,-0.002922,-0.016615,0.006157,0.210595,-0.390298,-0.877628,98949.0000
1779273740892428747,2026-05-20 16:12:20.890,0.258960,2.484132,286.352837,0.041222,-0.003348,0.978867,-0.186122,-0.059117,9.357675,0.006540,-0.001993,0.004047,0.210893,-0.390594,-0.877629,98953.0000
1779273740991323506,2026-05-20 16:12:20.989,0.262825,2.493211,286.310204,0.040699,-0.000516,0.979352,0.366999,0.053001,9.897116,0.000553,0.018087,0.003184,0.210618,-0.391146,-0.876109,98955.0000
1779273741091258654,2026-05-20 16:12:21.089,0.269746,2.523755,286.265114,0.031447,-0.001506,0.975555,0.893220,0.170855,10.181806,-0.006945,-0.016708,0.002285,0.208194,-0.391503,-0.877538,98942.0000
1779273741192255876,2026-05-20 16:12:21.190,0.274405,2.547284,286.218086,0.037057,-0.002147,0.977533,0.315926,-0.161659,9.805817,-0.001496,-0.021609,0.006495,0.209982,-0.391798,-0.877877,98955.0000
1779273741291401617,2026-05-20 16:12:21.289,0.271868,2.566493,286.170074,0.043547,-0.002786,0.979685,0.374387,0.235893,9.670276,0.007491,0.002887,0.011101,0.209982,-0.390031,-0.878519,98951.0000
1779273741391187598,2026-05-20 16:12:21.389,0.276479,2.574024,286.116982,0.041099,-0.003164,0.978762,-0.176938,0.050396,9.661667,0.011232,0.004933,0.012653,0.208781,-0.392401,-0.877832,98953.0000
1779273741491060672,2026-05-20 16:12:21.489,0.276238,2.564641,286.067635,0.039414,-0.000931,0.976617,0.818530,-0.061125,9.828351,-0.003183,0.005133,0.003293,0.210295,-0.392067,-0.876978,98957.0000
1779273741590530209,2026-05-20 16:12:21.589,0.269026,2.526827,286.024567,0.037483,-0.002199,0.977531,0.577206,-0.084851,9.825535,-0.000822,-0.001545,0.006001,0.207883,-0.393290,-0.877488,98953.0000
1779273741691108802,2026-05-20 16:12:21.689,0.268347,2.502650,285.982857,0.038948,-0.001015,0.978529,0.334507,0.027583,9.740971,-0.004948,0.003018,0.003114,0.207605,-0.392670,-0.876596,98949.0000
1779273741791008265,2026-05-20 16:12:21.789,0.271118,2.510456,285.944115,0.035196,-0.003159,0.977280,0.014055,0.317448,9.606912,0.001601,-0.013289,0.008624,0.206973,-0.392728,-0.878378,98958.0000
1779273741890641580,2026-05-20 16:12:21.889,0.275098,2.520571,285.917328,0.040225,-0.001220,0.977440,-0.134326,0.097517,9.534748,-0.011152,-0.002650,0.002230,0.208491,-0.392683,-0.877218,98951.0000
1779273741991508246,2026-05-20 16:12:21.990,0.286940,2.531843,285.891975,0.041184,-0.003273,0.978435,0.522358,0.319584,9.956918,-0.000378,-0.000166,0.003988,0.207307,-0.393258,-0.876274,98951.0000
1779273742091402876,2026-05-20 16:12:22.089,0.291954,2.525860,285.853271,0.039561,-0.003046,0.976669,0.568554,-0.143903,9.851217,0.004899,0.002752,0.008366,0.209097,-0.393256,-0.876620,98957.0000
1779273742192507376,2026-05-20 16:12:22.191,0.288792,2.498719,285.802742,0.034636,-0.002979,0.978065,0.840010,0.323187,9.939758,0.001229,-0.003857,0.007158,0.207891,-0.392100,-0.877517,98949.0000
1779273742292353061,2026-05-20 16:12:22.290,0.273594,2.469209,285.754639,0.036265,-0.004037,0.979305,0.003449,-0.233596,9.672383,0.005116,0.003300,0.010473,0.206090,-0.393887,-0.877128,98955.0000
1779273742391371783,2026-05-20 16:12:22.390,0.266275,2.474771,285.715675,0.038259,0.000257,0.979255,0.356834,-0.168368,9.833360,0.003868,0.007235,0.001158,0.205800,-0.393285,-0.876835,98955.0000
1779273742491248301,2026-05-20 16:12:22.489,0.273360,2.506411,285.667709,0.034708,-0.001903,0.976542,0.521167,0.148260,9.872987,0.003836,-0.006994,0.006429,0.205484,-0.393314,-0.877726,98955.0000
1779273742590710413,2026-05-20 16:12:22.589,0.280070,2.534250,285.614799,0.036836,-0.000834,0.976426,0.133252,0.094381,9.778735,-0.004765,-0.018150,0.008101,0.206681,-0.394191,-0.877435,98952.0000
1779273742692204524,2026-05-20 16:12:22.690,0.286587,2.540886,285.571030,0.040762,-0.002084,0.977896,0.588217,0.402036,9.829587,-0.000363,-0.004704,0.001317,0.205496,-0.393296,-0.877127,98951.0000
1779273742791283579,2026-05-20 16:12:22.789,0.290882,2.546465,285.541328,0.043024,-0.003457,0.978847,0.098179,0.162776,9.724968,0.008478,0.008390,0.006710,0.205214,-0.392387,-0.876542,98954.0000
1779273742891188320,2026-05-20 16:12:22.889,0.297103,2.559719,285.520615,0.038280,-0.001837,0.977541,0.259241,-0.028721,9.805980,0.003785,0.001361,-0.001567,0.205490,-0.394189,-0.877105,98955.0000
1779273742990639672,2026-05-20 16:12:22.989,0.302305,2.539142,285.486755,0.035748,-0.002511,0.977262,0.525477,0.103315,9.822566,-0.005213,-0.009186,0.002147,0.204871,-0.393931,-0.878295,98955.0000
1779273743091370468,2026-05-20 16:12:23.090,0.301809,2.523925,285.429756,0.044419,-0.004398,0.979045,0.542528,-0.183440,9.814395,0.000140,0.000264,0.008486,0.204567,-0.396295,-0.877631,98958.0000
1779273743191018857,2026-05-20 16:12:23.189,0.295234,2.515757,285.354279,0.035943,-0.003767,0.976389,0.094597,0.247754,9.660250,0.011163,-0.001371,0.016211,0.204897,-0.395067,-0.876469,98945.0000
1779273743292377560,2026-05-20 16:12:23.291,0.277238,2.483920,285.279755,0.037961,-0.001641,0.977957,-0.043643,-0.080767,9.596516,0.002304,-0.000416,0.014838,0.204575,-0.395105,-0.877660,98961.0000
1779273743392276171,2026-05-20 16:12:23.390,0.261536,2.449276,285.215630,0.038416,-0.000185,0.979729,0.406390,0.042901,9.915228,0.002942,0.005987,0.003976,0.203723,-0.395039,-0.875240,98952.0000
1779273743491327319,2026-05-20 16:12:23.489,0.260368,2.447052,285.161430,0.035973,0.000265,0.977801,0.382619,-0.074581,9.758917,-0.001437,0.002635,0.005557,0.203395,-0.396853,-0.876088,98954.0000
1779273743591182727,2026-05-20 16:12:23.589,0.270930,2.452260,285.117165,0.033267,-0.001727,0.976589,0.318390,0.284247,9.771641,0.005186,-0.006661,0.004858,0.203675,-0.396292,-0.877308,98964.0000
1779273743692444375,2026-05-20 16:12:23.690,0.286646,2.437060,285.096046,0.038182,-0.001138,0.977680,0.121953,-0.028569,9.639600,0.000968,0.004459,-0.000397,0.203391,-0.395681,-0.876716,98951.0000
1779273743791332227,2026-05-20 16:12:23.790,0.296249,2.452203,285.081627,0.038785,-0.002927,0.977709,0.484444,0.086507,9.824764,0.001336,0.002229,0.001824,0.202793,-0.395684,-0.876701,98953.0000
1779273743891132838,2026-05-20 16:12:23.889,0.299681,2.479160,285.062271,0.036926,-0.002089,0.977875,0.918045,0.262947,9.894598,-0.002322,0.000540,-0.002847,0.203402,-0.396546,-0.875796,98958.0000
1779273743991070856,2026-05-20 16:12:23.989,0.293743,2.505090,285.034920,0.035809,-0.005134,0.977054,0.136949,0.023752,9.592384,0.001888,-0.013195,0.006478,0.202195,-0.395688,-0.876686,98961.0000
1779273744090609634,2026-05-20 16:12:24.089,0.283314,2.498817,285.008484,0.042766,-0.001143,0.979483,0.324868,0.293433,9.733513,-0.002090,-0.000499,0.005027,0.201602,-0.395683,-0.876371,98947.0000
1779273744191261967,2026-05-20 16:12:24.189,0.277443,2.437473,284.991150,0.042537,-0.002014,0.979970,0.346404,-0.133902,9.788169,-0.000906,0.014447,0.004361,0.203389,-0.395978,-0.876709,98953.0000
1779273744291197171,2026-05-20 16:12:24.289,0.283615,2.385485,284.977036,0.034089,-0.002481,0.977392,0.338838,0.304618,9.955221,0.001184,0.002313,0.005080,0.201319,-0.397425,-0.874822,98947.0000
1779273744391015689,2026-05-20 16:12:24.389,0.284823,2.341665,284.970306,0.034069,-0.003016,0.977973,0.113567,-0.008733,9.659705,0.005354,0.004546,0.001696,0.203980,-0.396281,-0.877017,98958.0000
1779273744491568726,2026-05-20 16:12:24.490,0.281968,2.320236,284.964172,0.033766,-0.003056,0.976794,0.309603,0.067482,9.805354,0.003513,0.001122,0.001906,0.203058,-0.396620,-0.878185,98952.0000
1779273744591027152,2026-05-20 16:12:24.589,0.285431,2.352611,284.963547,0.036071,-0.001685,0.978065,1.048477,0.209928,9.985200,0.005097,-0.002816,0.000118,0.202180,-0.396301,-0.877270,98959.0000
1779273744691000893,2026-05-20 16:12:24.689,0.292198,2.408449,284.960632,0.034557,-0.003945,0.976063,-0.097601,0.104460,9.730525,0.007591,-0.010381,0.011226,0.203105,-0.395367,-0.876117,98951.0000
1779273744792446819,2026-05-20 16:12:24.791,0.296007,2.447326,284.957787,0.039276,-0.001601,0.978503,0.209201,0.058528,9.864331,-0.001524,-0.012004,0.003294,0.202757,-0.398687,-0.877528,98957.0000
1779273744891344096,2026-05-20 16:12:24.890,0.298408,2.452297,284.947365,0.042501,-0.004167,0.978643,0.691030,-0.384415,9.906005,0.003462,0.008376,0.002586,0.203083,-0.396287,-0.876994,98951.0000
1779273744991249337,2026-05-20 16:12:24.989,0.292890,2.417157,284.923584,0.036569,-0.004250,0.977284,0.210291,0.098083,9.804606,0.005233,0.004672,0.012113,0.202176,-0.395129,-0.877898,98960.0000
1779273745091812559,2026-05-20 16:12:25.090,0.284609,2.382537,284.902924,0.038715,-0.001883,0.979357,0.270435,0.061896,9.652741,0.008783,0.006942,0.004562,0.203387,-0.396276,-0.876702,98951.0000
1779273745191399355,2026-05-20 16:12:25.190,0.282374,2.364526,284.881058,0.037094,-0.002642,0.978426,0.489848,-0.224072,9.838276,-0.002747,0.006340,0.012043,0.202782,-0.396586,-0.876979,98958.0000
1779273745291254929,2026-05-20 16:12:25.289,0.281734,2.368351,284.859482,0.031742,-0.000890,0.976304,0.886765,0.164154,9.959330,-0.003990,-0.012376,-0.000629,0.203378,-0.395996,-0.877308,98951.0000
1779273745391211615,2026-05-20 16:12:25.389,0.284306,2.375139,284.861938,0.037715,-0.002959,0.976145,0.363329,-0.302311,9.734225,-0.007160,-0.007765,-0.000154,0.202493,-0.398338,-0.875730,98952.0000
1779273745490591448,2026-05-20 16:12:25.489,0.280194,2.387300,284.886887,0.037976,-0.002504,0.978917,0.059586,0.056934,9.732812,0.006070,0.000035,-0.007484,0.203106,-0.394483,-0.876438,98950.0000
1779273745591409226,2026-05-20 16:12:25.590,0.275379,2.389728,284.926369,0.037803,-0.001811,0.977565,1.085989,-0.053269,9.927466,-0.001126,-0.004498,-0.008351,0.204249,-0.396622,-0.878515,98953.0000
1779273745691126540,2026-05-20 16:12:25.689,0.264029,2.396074,284.965698,0.036086,-0.004824,0.978259,0.121407,-0.115865,9.637106,0.007196,-0.005148,-0.004558,0.203419,-0.395636,-0.875218,98959.0000
1779273745792274596,2026-05-20 16:12:25.791,0.258656,2.417483,285.000916,0.041122,-0.002691,0.979273,0.382363,-0.129151,9.687417,0.005502,0.002916,-0.006910,0.202507,-0.395371,-0.876101,98953.0000
1779273745892535559,2026-05-20 16:12:25.890,0.260871,2.417113,285.038574,0.037395,-0.002176,0.977044,0.640981,-0.301740,9.843413,-0.000053,0.008005,-0.001265,0.203089,-0.394510,-0.877336,98954.0000
1779273745991354762,2026-05-20 16:12:25.990,0.273674,2.400456,285.086090,0.034477,-0.001290,0.977017,0.615390,0.048730,9.886069,-0.003789,-0.006850,-0.011952,0.204598,-0.395069,-0.876462,98953.0000
1779273746090819188,2026-05-20 16:12:26.089,0.293828,2.395517,285.132721,0.038489,-0.005456,0.978739,-0.065905,-0.196871,9.685493,-0.002956,0.001901,-0.007381,0.203981,-0.394514,-0.877659,98959.0000
1779273746192369484,2026-05-20 16:12:26.191,0.308731,2.412900,285.168755,0.039685,-0.004407,0.979197,0.508141,-0.162947,9.833815,-0.001242,0.008075,-0.010159,0.204264,-0.396009,-0.877930,98960.0000
1779273746291591040,2026-05-20 16:12:26.290,0.306103,2.398645,285.220779,0.036916,-0.004680,0.977679,0.456341,-0.326605,9.785621,0.006129,-0.002330,-0.014223,0.204857,-0.396014,-0.878245,98952.0000
1779273746391312595,2026-05-20 16:12:26.389,0.298464,2.398465,285.283485,0.034521,-0.004103,0.976187,0.458144,0.109777,9.869752,-0.001080,-0.009302,-0.008077,0.205779,-0.394791,-0.877398,98952.0000
1779273746492533373,2026-05-20 16:12:26.491,0.285002,2.412961,285.349480,0.039247,-0.005032,0.977407,-0.029214,-0.139641,9.533081,0.002042,-0.007041,-0.007600,0.206688,-0.393000,-0.877464,98951.0000
1779273746592226521,2026-05-20 16:12:26.591,0.268329,2.430055,285.402504,0.041978,-0.002820,0.978494,0.417293,0.071538,9.847353,0.003725,0.003568,-0.015517,0.206094,-0.393292,-0.877142,98952.0000
1779273746691020095,2026-05-20 16:12:26.689,0.268037,2.435032,285.433502,0.037531,-0.001768,0.977557,0.829794,-0.145830,10.143066,-0.005612,0.003417,-0.007685,0.204890,-0.394490,-0.877083,98953.0000
1779273746792674836,2026-05-20 16:12:26.791,0.285956,2.403557,285.467308,0.035651,-0.003459,0.977388,0.371654,0.188487,9.992480,0.000264,0.002791,-0.003195,0.207006,-0.393558,-0.876259,98951.0000
1779273746892731743,2026-05-20 16:12:26.891,0.307157,2.367514,285.504707,0.035978,-0.002375,0.978482,0.078835,-0.007889,9.787830,-0.003928,-0.003404,-0.009964,0.206705,-0.392089,-0.876887,98953.0000
1779273746991333077,2026-05-20 16:12:26.990,0.315744,2.363250,285.533646,0.035580,-0.005834,0.979181,0.674970,-0.346338,9.933533,0.004360,0.003751,-0.002901,0.206692,-0.392405,-0.877478,98947.0000
1779273747091143410,2026-05-20 16:12:27.089,0.311430,2.398185,285.553421,0.035386,-0.004033,0.977644,0.731433,-0.139597,9.782571,0.003634,0.000511,-0.007632,0.207008,-0.393260,-0.876267,98951.0000
1779273747190743725,2026-05-20 16:12:27.189,0.290917,2.426494,285.580795,0.035398,-0.005367,0.977296,0.122289,-0.258858,9.740651,0.007921,-0.007683,-0.000577,0.206988,-0.393882,-0.877151,98954.0000
1779273747290750521,2026-05-20 16:12:27.289,0.271149,2.416263,285.618454,0.043149,-0.002566,0.978796,0.352482,-0.100620,9.745662,0.005271,0.010323,-0.001414,0.207913,-0.392064,-0.876318,98964.0000
1779273747391158317,2026-05-20 16:12:27.389,0.266911,2.397813,285.654472,0.040901,-0.002118,0.978238,0.739742,-0.236106,9.975300,0.001924,0.010348,-0.009689,0.208228,-0.390565,-0.876062,98958.0000
1779273747490994687,2026-05-20 16:12:27.489,0.271498,2.362051,285.680428,0.034176,-0.002317,0.976934,0.439106,0.104768,9.848789,-0.002649,-0.004169,-0.002120,0.208209,-0.391773,-0.876632,98947.0000
1779273747590887910,2026-05-20 16:12:27.589,0.286511,2.331658,285.705765,0.037911,-0.002125,0.977804,0.014008,-0.048706,9.489489,-0.003848,-0.000206,-0.008549,0.209675,-0.392991,-0.877841,98953.0000
1779273747691491095,2026-05-20 16:12:27.690,0.305233,2.310717,285.721886,0.036887,-0.003889,0.977788,0.594753,-0.185864,9.928459,-0.004526,0.005818,-0.003238,0.208203,-0.392666,-0.876611,98958.0000
1779273747791163354,2026-05-20 16:12:27.789,0.319468,2.314246,285.732658,0.031139,-0.002783,0.976423,0.687404,0.022018,9.904107,-0.005438,-0.011456,-0.008434,0.208808,-0.390886,-0.876969,98959.0000
1779273747891097428,2026-05-20 16:12:27.889,0.333053,2.331013,285.744209,0.035609,-0.006543,0.977391,0.334985,-0.357654,9.614742,-0.003330,-0.009380,0.001832,0.209974,-0.392105,-0.878169,98959.0000
1779273747990572724,2026-05-20 16:12:27.989,0.327841,2.356421,285.744453,0.038593,-0.004627,0.980007,-0.015533,0.034557,9.748787,0.005698,0.010454,-0.006438,0.209690,-0.391494,-0.877577,98959.0000
1779273748091078372,2026-05-20 16:12:28.089,0.302237,2.357119,285.754593,0.038074,-0.002492,0.977674,0.850566,0.008058,9.762706,0.003213,-0.001711,-0.006495,0.209071,-0.393003,-0.878125,98956.0000
1779273748191110002,2026-05-20 16:12:28.189,0.285135,2.371743,285.777458,0.035442,-0.004542,0.976829,-0.070186,-0.080074,9.632213,0.000596,-0.008558,-0.004580,0.208832,-0.392320,-0.875136,98955.0000
1779273748290597668,2026-05-20 16:12:28.289,0.277187,2.373348,285.799797,0.040489,-0.000556,0.978438,0.278846,0.071406,9.582759,0.004474,-0.001595,-0.003174,0.209379,-0.392397,-0.877847,98953.0000
1779273748391562354,2026-05-20 16:12:28.390,0.283681,2.375339,285.819748,0.039964,-0.001834,0.978836,0.257099,-0.142927,9.774158,0.002795,0.003400,-0.005455,0.209400,-0.390892,-0.877284,98962.0000
1779273748491388594,2026-05-20 16:12:28.490,0.297396,2.363283,285.837234,0.035963,-0.003301,0.977281,0.540552,0.130362,9.717284,-0.001297,-0.006902,-0.006464,0.210893,-0.390594,-0.877629,98953.0000
1779273748590991409,2026-05-20 16:12:28.589,0.310573,2.326728,285.861397,0.039386,-0.003858,0.978112,-0.001850,0.034062,9.554248,-0.003985,0.001348,-0.006499,0.209693,-0.392666,-0.876949,98954.0000
1779273748694822835,2026-05-20 16:12:28.690,0.319374,2.315365,285.899925,0.039996,-0.003706,0.977984,0.514413,-0.236839,9.713263,-0.001351,0.013189,-0.019159,0.208810,-0.390589,-0.876976,98953.0000
1779273748791387705,2026-05-20 16:12:28.790,0.313348,2.335500,285.941231,0.029774,-0.005643,0.975052,0.214631,0.088165,9.700875,0.004871,-0.013554,-0.004126,0.210269,-0.391815,-0.878483,98952.0000
1779273748891730761,2026-05-20 16:12:28.889,0.300885,2.335717,285.975441,0.038084,-0.001736,0.978787,0.540829,0.043352,9.797585,-0.004784,-0.007959,-0.012092,0.210896,-0.391766,-0.877001,98953.0000
1779273748991041001,2026-05-20 16:12:28.989,0.297363,2.332583,286.012505,0.039858,-0.003331,0.980181,-0.125520,-0.188929,9.582528,-0.001180,0.005828,-0.007671,0.211798,-0.390282,-0.877359,98959.0000
1779273749092443909,2026-05-20 16:12:29.090,0.305253,2.342948,286.044060,0.038520,-0.001969,0.979373,0.715289,0.176818,9.806298,-0.000537,0.001172,-0.011299,0.212417,-0.389656,-0.876491,98949.0000
1779273749191120520,2026-05-20 16:12:29.189,0.324559,2.329361,286.079971,0.036826,-0.003633,0.976854,0.315670,-0.336724,9.709588,0.001295,-0.001320,-0.011621,0.212389,-0.389701,-0.877988,98958.0000
1779273749292695279,2026-05-20 16:12:29.291,0.336291,2.312380,286.112633,0.041125,-0.004977,0.977773,0.154805,-0.125379,9.588343,0.001083,0.001347,-0.002471,0.211198,-0.390583,-0.877337,98953.0000
1779273749392537279,2026-05-20 16:12:29.391,0.336757,2.322360,286.146339,0.038082,-0.003940,0.977004,1.013176,-0.126759,9.886377,-0.005505,0.004667,-0.012704,0.210583,-0.387962,-0.879184,98952.0000
1779273749491566316,2026-05-20 16:12:29.490,0.318816,2.308595,286.177528,0.029919,-0.005904,0.975169,-0.021502,-0.285625,9.614284,0.005999,-0.006219,-0.000069,0.213299,-0.389380,-0.877419,98956.0000
1779273749591133557,2026-05-20 16:12:29.589,0.296119,2.304793,286.203560,0.038771,-0.002278,0.980135,0.197930,0.103000,9.630293,0.005507,0.001943,-0.008115,0.213273,-0.390895,-0.878282,98952.0000
1779273749692489853,2026-05-20 16:12:29.691,0.293747,2.325220,286.237251,0.036127,-0.001152,0.979106,0.522105,-0.115001,9.812467,-0.001329,0.005263,-0.011391,0.212091,-0.390289,-0.877667,98956.0000
1779273749792369112,2026-05-20 16:12:29.791,0.300117,2.326941,286.273422,0.032494,-0.003715,0.977112,0.222236,0.060473,9.687760,-0.002257,-0.016735,-0.005343,0.212996,-0.389977,-0.877397,98951.0000
1779273749891386982,2026-05-20 16:12:29.890,0.313280,2.312478,286.303833,0.042728,-0.002368,0.980170,0.198512,0.143370,9.736569,-0.009027,-0.001436,-0.008488,0.214207,-0.387886,-0.877478,98959.0000
1779273749990878575,2026-05-20 16:12:29.989,0.326372,2.310255,286.325508,0.040571,-0.003420,0.977856,0.407279,-0.160196,9.767975,-0.005379,0.004338,-0.011032,0.214208,-0.388472,-0.877164,98959.0000
1779273750090959260,2026-05-20 16:12:30.089,0.332379,2.289871,286.345665,0.035633,-0.005649,0.975762,0.365569,0.146718,9.851101,-0.001462,-0.005128,-0.003839,0.215077,-0.389396,-0.878364,98950.0000
1779273750191310093,2026-05-20 16:12:30.190,0.334065,2.264816,286.368980,0.038640,-0.004405,0.978624,0.211864,0.137386,9.774117,-0.002652,0.008463,-0.003008,0.214500,-0.387893,-0.877786,98949.0000
1779273750291215278,2026-05-20 16:12:30.289,0.326122,2.258702,286.389671,0.035345,-0.004516,0.977714,0.209834,-0.091229,9.795911,0.003336,0.005867,-0.003083,0.214494,-0.387902,-0.878085,98954.0000
1779273750391043797,2026-05-20 16:12:30.389,0.311120,2.252586,286.406982,0.030088,-0.002744,0.975142,0.594007,0.272049,9.970272,0.004114,-0.012674,-0.000494,0.213023,-0.388462,-0.876535,98958.0000
1779273750490711149,2026-05-20 16:12:30.489,0.309260,2.258892,286.426346,0.037502,-0.002639,0.977634,0.010979,-0.082126,9.598222,0.000767,-0.006360,-0.011541,0.213908,-0.387004,-0.877792,98948.0000
1779273750591256186,2026-05-20 16:12:30.589,0.316771,2.288890,286.444916,0.040016,-0.003642,0.980132,0.477802,-0.191180,9.939598,0.005868,0.013324,-0.005569,0.213919,-0.387870,-0.876872,98957.0000
