Timestamp,Time,Roll,Pitch,Yaw,Magnetic_Field_X,Magnetic_Field_Y,Magnetic_Field_Z,Angular_Rate_X,Angular_Rate_Y,Angular_Rate_Z,Acceleration_X,Acceleration_Y,Acceleration_Z
1764073549824039961,2025-11-25 17:55:49.821,-1.360000,1.686000,282.618000,0.065200,0.315600,0.207800,0.302000,0.237000,-10.119000,-0.006390,0.000936,0.000813
1764073549849052090,2025-11-25 17:55:49.846,-1.370000,1.687000,282.620000,0.066200,0.319400,0.179500,0.269000,0.247000,-10.124000,-0.006740,0.000678,0.000195
1764073549875696924,2025-11-25 17:55:49.873,-1.380000,1.687000,282.620000,0.067200,0.320500,0.205700,0.306000,0.260000,-10.151000,-0.006861,0.000948,0.000141
1764073549898198109,2025-11-25 17:55:49.895,-1.389000,1.689000,282.619000,0.066200,0.317500,0.206700,0.301000,0.284000,-10.138000,-0.005816,0.001531,-0.000932
1764073549923788887,2025-11-25 17:55:49.921,-1.399000,1.691000,282.620000,0.065200,0.317500,0.188200,0.287000,0.276000,-10.108000,-0.006373,0.001103,-0.000165
1764073549950080887,2025-11-25 17:55:49.947,-1.408000,1.690000,282.620000,0.064300,0.317600,0.205500,0.316000,0.248000,-10.095000,-0.003449,0.000139,0.000157
1764073549974844109,2025-11-25 17:55:49.972,-1.417000,1.692000,282.619000,0.066100,0.317500,0.182800,0.294000,0.283000,-10.114000,-0.003761,-0.000941,-0.000384
1764073550000478164,2025-11-25 17:55:49.997,-1.423000,1.692000,282.618000,0.066200,0.318500,0.204500,0.311000,0.255000,-10.079000,-0.002850,0.000662,0.000008
1764073550062177572,2025-11-25 17:55:50.060,-1.430000,1.691000,282.615000,0.065300,0.317600,0.208900,0.296000,0.278000,-10.110000,-0.000358,-0.001443,0.000570
1764073550071643961,2025-11-25 17:55:50.069,-1.431000,1.688000,282.616000,0.065400,0.322500,0.205600,0.315000,0.255000,-10.110000,0.001278,-0.002754,-0.000441
1764073550098528405,2025-11-25 17:55:50.096,-1.430000,1.687000,282.615000,0.066200,0.317500,0.205600,0.269000,0.287000,-10.094000,0.002085,-0.000762,0.000095
1764073550121721461,2025-11-25 17:55:50.119,-1.428000,1.683000,282.615000,0.066200,0.319400,0.187100,0.309000,0.260000,-10.081000,0.001927,-0.001569,0.001161
1764073550149794609,2025-11-25 17:55:50.146,-1.425000,1.679000,282.617000,0.065200,0.313600,0.205600,0.300000,0.275000,-10.119000,0.003341,-0.002914,0.000273
1764073550174146275,2025-11-25 17:55:50.171,-1.419000,1.676000,282.618000,0.067000,0.311600,0.186200,0.271000,0.246000,-10.095000,0.003594,-0.002291,-0.000084
1764073550198066590,2025-11-25 17:55:50.195,-1.412000,1.672000,282.620000,0.066200,0.317500,0.202400,0.302000,0.252000,-10.114000,0.006324,-0.002674,0.001857
1764073550222670350,2025-11-25 17:55:50.220,-1.405000,1.669000,282.620000,0.064300,0.313600,0.207700,0.256000,0.251000,-10.125000,0.004375,-0.000584,0.000827
1764073550249177016,2025-11-25 17:55:50.246,-1.397000,1.665000,282.621000,0.067900,0.313500,0.189500,0.306000,0.235000,-10.123000,0.005067,-0.001587,0.000178
1764073550275684442,2025-11-25 17:55:50.272,-1.390000,1.660000,282.624000,0.066200,0.315600,0.211100,0.305000,0.255000,-10.139000,0.003889,-0.003265,0.001706
1764073550297713146,2025-11-25 17:55:50.295,-1.384000,1.658000,282.625000,0.065200,0.312600,0.208900,0.280000,0.244000,-10.101000,0.004221,-0.002954,0.000914
1764073550323222775,2025-11-25 17:55:50.320,-1.378000,1.654000,282.628000,0.065200,0.314600,0.202300,0.303000,0.207000,-10.137000,0.003211,-0.001251,0.000895
1764073550349775090,2025-11-25 17:55:50.346,-1.372000,1.653000,282.628000,0.065200,0.318500,0.186000,0.286000,0.244000,-10.167000,0.003871,-0.001387,0.001119
1764073550375056498,2025-11-25 17:55:50.372,-1.368000,1.653000,282.628000,0.066100,0.313600,0.208900,0.308000,0.222000,-10.141000,0.003409,0.000106,-0.000118
1764073550398504072,2025-11-25 17:55:50.395,-1.364000,1.652000,282.627000,0.066200,0.318500,0.208900,0.281000,0.213000,-10.112000,0.001965,-0.000120,-0.000092
1764073550422834831,2025-11-25 17:55:50.420,-1.360000,1.652000,282.627000,0.064300,0.313600,0.205600,0.272000,0.229000,-10.134000,0.002402,0.000470,0.000758
1764073550447817701,2025-11-25 17:55:50.445,-1.358000,1.654000,282.627000,0.065200,0.318500,0.184900,0.304000,0.224000,-10.128000,0.000813,0.001750,0.000186
1764073550471241923,2025-11-25 17:55:50.469,-1.358000,1.657000,282.625000,0.067200,0.319500,0.205700,0.259000,0.247000,-10.120000,-0.001042,0.001484,-0.000757
1764073550498075535,2025-11-25 17:55:50.495,-1.356000,1.660000,282.626000,0.068100,0.317500,0.207900,0.311000,0.227000,-10.141000,0.000110,0.002445,0.001015
1764073550522744035,2025-11-25 17:55:50.520,-1.358000,1.663000,282.625000,0.067200,0.318500,0.205700,0.291000,0.247000,-10.135000,0.000232,0.002272,0.001465
1764073550548454183,2025-11-25 17:55:50.545,-1.359000,1.667000,282.627000,0.067100,0.319400,0.188300,0.263000,0.258000,-10.129000,-0.000827,0.002697,-0.000195
1764073550574238220,2025-11-25 17:55:50.571,-1.360000,1.671000,282.626000,0.068000,0.314600,0.206800,0.304000,0.231000,-10.114000,-0.001115,0.003142,0.000629
1764073550598181386,2025-11-25 17:55:50.595,-1.361000,1.675000,282.624000,0.065200,0.318500,0.181700,0.288000,0.243000,-10.117000,-0.000256,0.002745,-0.000577
1764073550624622312,2025-11-25 17:55:50.621,-1.361000,1.681000,282.622000,0.067100,0.317500,0.188300,0.307000,0.237000,-10.090000,0.000227,0.003585,-0.001111
1764073550648676590,2025-11-25 17:55:50.646,-1.362000,1.684000,282.623000,0.066200,0.317500,0.207800,0.327000,0.253000,-10.101000,0.000802,0.002975,-0.000505
1764073550674204053,2025-11-25 17:55:50.671,-1.362000,1.689000,282.624000,0.066100,0.314600,0.202400,0.271000,0.261000,-10.152000,0.000736,0.003004,0.002260
1764073550697746257,2025-11-25 17:55:50.695,-1.363000,1.693000,282.624000,0.065100,0.312600,0.186000,0.318000,0.238000,-10.117000,-0.000327,0.002407,-0.000634
1764073550722923627,2025-11-25 17:55:50.720,-1.364000,1.696000,282.626000,0.066200,0.318400,0.182800,0.303000,0.243000,-10.094000,-0.000680,0.002231,0.000761
1764073550748373645,2025-11-25 17:55:50.745,-1.364000,1.700000,282.626000,0.067100,0.317500,0.199200,0.309000,0.229000,-10.159000,-0.000838,0.001575,0.000385
1764073550774737071,2025-11-25 17:55:50.772,-1.365000,1.701000,282.628000,0.066200,0.315500,0.201300,0.327000,0.253000,-10.102000,-0.000380,0.000735,0.000147
1764073550798309479,2025-11-25 17:55:50.796,-1.366000,1.703000,282.629000,0.066200,0.315600,0.203500,0.291000,0.230000,-10.125000,-0.001064,0.001233,0.000440
1764073550822137794,2025-11-25 17:55:50.819,-1.366000,1.705000,282.631000,0.067100,0.320400,0.183900,0.293000,0.217000,-10.103000,-0.000375,-0.000149,0.002329
1764073550848680479,2025-11-25 17:55:50.845,-1.369000,1.705000,282.631000,0.067300,0.326300,0.183900,0.330000,0.253000,-10.111000,-0.001905,0.000359,-0.000712
1764073550875113442,2025-11-25 17:55:50.872,-1.370000,1.706000,282.632000,0.065400,0.323400,0.206600,0.322000,0.240000,-10.116000,-0.001226,-0.001015,0.000961
1764073550898602219,2025-11-25 17:55:50.895,-1.372000,1.705000,282.633000,0.066100,0.317500,0.183900,0.321000,0.215000,-10.114000,-0.002460,-0.001293,0.001481
1764073550923794294,2025-11-25 17:55:50.920,-1.374000,1.703000,282.633000,0.067100,0.315500,0.190500,0.287000,0.257000,-10.139000,-0.000956,-0.002004,0.001198
1764073550951092590,2025-11-25 17:55:50.949,-1.377000,1.700000,282.633000,0.066100,0.314500,0.187200,0.299000,0.242000,-10.120000,-0.003616,-0.001919,-0.000284
1764073550973008516,2025-11-25 17:55:50.970,-1.380000,1.696000,282.635000,0.066200,0.318400,0.185000,0.311000,0.221000,-10.121000,-0.002787,-0.002813,0.001661
1764073550996255145,2025-11-25 17:55:50.993,-1.383000,1.694000,282.635000,0.067100,0.320400,0.187200,0.299000,0.238000,-10.110000,-0.002257,-0.002904,0.000098
1764073551065569423,2025-11-25 17:55:51.063,-1.392000,1.685000,282.636000,0.065400,0.321500,0.204500,0.297000,0.246000,-10.123000,-0.002964,-0.003634,0.001266
1764073551074784923,2025-11-25 17:55:51.072,-1.396000,1.681000,282.637000,0.067100,0.316500,0.204600,0.300000,0.238000,-10.124000,-0.003798,-0.003353,0.001015
1764073551098452571,2025-11-25 17:55:51.096,-1.400000,1.675000,282.636000,0.067200,0.319500,0.202400,0.310000,0.256000,-10.099000,-0.002877,-0.004420,0.000615
1764073551122590108,2025-11-25 17:55:51.120,-1.404000,1.672000,282.637000,0.063500,0.319500,0.203300,0.267000,0.250000,-10.097000,-0.003566,-0.002208,0.001682
1764073551149627590,2025-11-25 17:55:51.146,-1.409000,1.667000,282.637000,0.066300,0.321500,0.206700,0.324000,0.258000,-10.119000,-0.003501,-0.002781,0.001236
1764073551172137719,2025-11-25 17:55:51.169,-1.413000,1.663000,282.638000,0.066100,0.313600,0.205700,0.288000,0.261000,-10.086000,-0.002418,-0.003099,-0.000522
1764073551198349645,2025-11-25 17:55:51.195,-1.417000,1.660000,282.639000,0.066100,0.315500,0.187200,0.288000,0.258000,-10.118000,-0.002507,-0.002917,-0.000399
1764073551222445108,2025-11-25 17:55:51.220,-1.421000,1.654000,282.638000,0.066100,0.311600,0.206800,0.291000,0.269000,-10.154000,-0.002089,-0.001909,-0.000159
1764073551248341867,2025-11-25 17:55:51.245,-1.423000,1.653000,282.638000,0.067100,0.315600,0.207900,0.274000,0.279000,-10.132000,-0.000520,-0.000728,-0.000098
1764073551275315090,2025-11-25 17:55:51.272,-1.425000,1.652000,282.639000,0.065200,0.316500,0.186000,0.306000,0.240000,-10.105000,-0.000820,-0.000346,-0.000008
1764073551299286793,2025-11-25 17:55:51.296,-1.425000,1.651000,282.640000,0.066100,0.315500,0.183900,0.296000,0.269000,-10.127000,0.000107,-0.000209,0.000350
1764073551322806441,2025-11-25 17:55:51.320,-1.425000,1.653000,282.640000,0.064300,0.317600,0.206600,0.291000,0.237000,-10.093000,-0.000253,0.000802,-0.000458
1764073551348718645,2025-11-25 17:55:51.346,-1.424000,1.653000,282.640000,0.066100,0.316500,0.185000,0.311000,0.246000,-10.115000,0.000089,0.001468,0.000274
1764073551374229238,2025-11-25 17:55:51.371,-1.422000,1.656000,282.640000,0.064400,0.320400,0.184900,0.249000,0.271000,-10.103000,0.003155,0.002711,0.000055
1764073551398066127,2025-11-25 17:55:51.395,-1.419000,1.658000,282.639000,0.067100,0.316500,0.190500,0.294000,0.262000,-10.169000,0.002692,0.002960,-0.000283
1764073551422226923,2025-11-25 17:55:51.419,-1.416000,1.662000,282.641000,0.065300,0.316600,0.209900,0.284000,0.247000,-10.105000,0.002664,0.002804,0.000563
1764073551447635978,2025-11-25 17:55:51.444,-1.412000,1.668000,282.643000,0.066100,0.315500,0.182800,0.292000,0.238000,-10.144000,0.002608,0.003286,0.000404
1764073551475314423,2025-11-25 17:55:51.472,-1.408000,1.672000,282.644000,0.066100,0.315500,0.185000,0.280000,0.254000,-10.153000,0.002826,0.002573,0.001618
1764073551499389052,2025-11-25 17:55:51.496,-1.403000,1.675000,282.647000,0.067000,0.315500,0.185000,0.271000,0.244000,-10.098000,0.003458,0.003853,0.001636
1764073551522149071,2025-11-25 17:55:51.519,-1.398000,1.681000,282.650000,0.066200,0.317500,0.188200,0.287000,0.236000,-10.104000,0.003524,0.003498,0.002357
1764073551548820645,2025-11-25 17:55:51.545,-1.393000,1.684000,282.651000,0.065100,0.313600,0.187100,0.277000,0.253000,-10.136000,0.002976,0.003033,0.001272
1764073551574238386,2025-11-25 17:55:51.571,-1.389000,1.689000,282.654000,0.065300,0.316600,0.205600,0.284000,0.262000,-10.126000,0.002358,0.003239,0.001775
1764073551598017960,2025-11-25 17:55:51.595,-1.385000,1.693000,282.656000,0.065300,0.317600,0.211000,0.333000,0.235000,-10.133000,0.002913,0.002049,0.002834
1764073551622640867,2025-11-25 17:55:51.620,-1.380000,1.697000,282.659000,0.068200,0.323400,0.204600,0.295000,0.272000,-10.155000,0.002911,0.001323,0.001018
1764073551647479701,2025-11-25 17:55:51.644,-1.376000,1.700000,282.663000,0.066200,0.317500,0.205600,0.309000,0.250000,-10.118000,0.002779,0.002175,0.002147
1764073551674335756,2025-11-25 17:55:51.671,-1.371000,1.702000,282.665000,0.065200,0.316500,0.186000,0.297000,0.235000,-10.095000,0.002724,0.000674,0.003425
1764073551698583330,2025-11-25 17:55:51.696,-1.366000,1.704000,282.666000,0.070000,0.319400,0.204700,0.308000,0.259000,-10.131000,0.003393,0.000085,0.000576
1764073551722351626,2025-11-25 17:55:51.719,-1.362000,1.704000,282.670000,0.065200,0.317500,0.186000,0.331000,0.246000,-10.111000,0.002753,-0.000479,0.000404
1764073551747541015,2025-11-25 17:55:51.744,-1.359000,1.705000,282.667000,0.064300,0.317600,0.206600,0.292000,0.243000,-10.096000,0.003338,-0.000766,-0.000275
1764073551774868626,2025-11-25 17:55:51.772,-1.355000,1.706000,282.667000,0.065200,0.315600,0.205600,0.312000,0.267000,-10.148000,0.002420,-0.000938,0.000752
1764073551798279645,2025-11-25 17:55:51.795,-1.352000,1.704000,282.667000,0.067200,0.320500,0.207800,0.307000,0.234000,-10.088000,0.002974,-0.001506,-0.000572
1764073551821488330,2025-11-25 17:55:51.819,-1.348000,1.704000,282.667000,0.068100,0.319500,0.203500,0.258000,0.236000,-10.126000,0.002552,-0.000541,0.000798
1764073551847648552,2025-11-25 17:55:51.845,-1.344000,1.701000,282.667000,0.063500,0.322500,0.206500,0.316000,0.227000,-10.123000,0.002916,-0.002192,-0.000121
1764073551873112682,2025-11-25 17:55:51.871,-1.340000,1.699000,282.664000,0.065200,0.316500,0.181700,0.285000,0.247000,-10.102000,0.002860,-0.001741,-0.000766
1764073551898263923,2025-11-25 17:55:51.895,-1.336000,1.697000,282.661000,0.066200,0.318500,0.202400,0.283000,0.231000,-10.108000,0.003151,-0.001113,-0.000731
1764073551922898515,2025-11-25 17:55:51.920,-1.334000,1.693000,282.659000,0.068100,0.318500,0.205700,0.290000,0.227000,-10.134000,0.002615,-0.002071,-0.000275
1764073551951185811,2025-11-25 17:55:51.949,-1.331000,1.691000,282.657000,0.064400,0.321400,0.184900,0.274000,0.225000,-10.101000,-0.000039,-0.000717,-0.001400
1764073551972180108,2025-11-25 17:55:51.969,-1.329000,1.689000,282.654000,0.066300,0.322400,0.203400,0.309000,0.219000,-10.095000,0.001529,-0.001702,0.000227
1764073552000653923,2025-11-25 17:55:51.997,-1.328000,1.687000,282.654000,0.065300,0.319500,0.206700,0.297000,0.251000,-10.138000,0.000881,-0.001603,0.000528
1764073552064885867,2025-11-25 17:55:52.062,-1.327000,1.683000,282.654000,0.065200,0.314600,0.206700,0.286000,0.194000,-10.136000,-0.000753,-0.000894,0.000649
1764073552074158182,2025-11-25 17:55:52.072,-1.327000,1.681000,282.655000,0.066200,0.317500,0.210000,0.256000,0.247000,-10.127000,-0.002043,-0.000657,-0.000258
1764073552096554034,2025-11-25 17:55:52.093,-1.330000,1.680000,282.657000,0.065200,0.313600,0.206700,0.306000,0.246000,-10.123000,-0.003322,-0.000072,0.000350
1764073552123286885,2025-11-25 17:55:52.120,-1.335000,1.679000,282.659000,0.067000,0.315500,0.187200,0.287000,0.210000,-10.089000,-0.003068,-0.000577,0.002538
1764073552146281404,2025-11-25 17:55:52.143,-1.340000,1.679000,282.662000,0.067100,0.315600,0.205700,0.299000,0.238000,-10.132000,-0.003777,-0.000378,0.002047
1764073552174966719,2025-11-25 17:55:52.171,-1.346000,1.679000,282.665000,0.065400,0.327300,0.184900,0.309000,0.237000,-10.121000,-0.004583,-0.001327,0.000263
1764073552198106404,2025-11-25 17:55:52.195,-1.352000,1.679000,282.666000,0.066300,0.320500,0.206700,0.261000,0.240000,-10.126000,-0.005038,0.000788,0.002452
1764073552224176941,2025-11-25 17:55:52.221,-1.360000,1.680000,282.668000,0.066100,0.314500,0.185000,0.325000,0.213000,-10.156000,-0.005881,-0.000022,0.003405
1764073552248030459,2025-11-25 17:55:52.245,-1.369000,1.680000,282.671000,0.066200,0.315600,0.205700,0.303000,0.236000,-10.139000,-0.006660,0.000274,0.002973
1764073552275310571,2025-11-25 17:55:52.272,-1.379000,1.682000,282.674000,0.069000,0.320400,0.184000,0.276000,0.241000,-10.102000,-0.007108,0.000236,0.002494
1764073552297673978,2025-11-25 17:55:52.295,-1.389000,1.682000,282.676000,0.066100,0.315500,0.183900,0.302000,0.221000,-10.135000,-0.007383,-0.000573,0.002283
1764073552322615015,2025-11-25 17:55:52.320,-1.399000,1.682000,282.678000,0.065200,0.315600,0.206700,0.288000,0.268000,-10.149000,-0.006644,0.000374,0.001698
1764073552347683589,2025-11-25 17:55:52.344,-1.409000,1.683000,282.680000,0.067100,0.316500,0.183900,0.333000,0.245000,-10.118000,-0.006871,0.000399,0.001124
1764073552376033163,2025-11-25 17:55:52.373,-1.420000,1.683000,282.682000,0.064400,0.321500,0.204400,0.324000,0.244000,-10.124000,-0.006858,-0.001741,0.002062
1764073552397140033,2025-11-25 17:55:52.394,-1.429000,1.683000,282.683000,0.064400,0.319500,0.204400,0.276000,0.287000,-10.111000,-0.006954,-0.000657,-0.000604
1764073552423501348,2025-11-25 17:55:52.420,-1.439000,1.682000,282.683000,0.065300,0.318500,0.208900,0.331000,0.233000,-10.128000,-0.006710,-0.000725,0.000860
1764073552446269182,2025-11-25 17:55:52.443,-1.447000,1.680000,282.684000,0.066100,0.316500,0.183900,0.290000,0.244000,-10.129000,-0.005242,-0.001988,0.000987
1764073552474041644,2025-11-25 17:55:52.471,-1.454000,1.679000,282.685000,0.064300,0.316600,0.208800,0.320000,0.269000,-10.099000,-0.004650,-0.001186,0.001430
1764073552497813126,2025-11-25 17:55:52.495,-1.460000,1.677000,282.686000,0.065100,0.312600,0.181700,0.306000,0.268000,-10.132000,-0.003590,-0.000789,0.000250
1764073552523458237,2025-11-25 17:55:52.520,-1.465000,1.676000,282.687000,0.066300,0.323400,0.207800,0.281000,0.275000,-10.138000,-0.002399,-0.001020,0.002394
1764073552547756237,2025-11-25 17:55:52.544,-1.467000,1.674000,282.689000,0.066100,0.315500,0.189300,0.304000,0.257000,-10.108000,-0.002001,-0.002102,0.000314
1764073552575296774,2025-11-25 17:55:52.572,-1.470000,1.671000,282.688000,0.068000,0.313600,0.210100,0.285000,0.280000,-10.120000,-0.000815,-0.001618,-0.000501
1764073552599176089,2025-11-25 17:55:52.596,-1.471000,1.670000,282.688000,0.066100,0.314600,0.206800,0.290000,0.259000,-10.135000,-0.000290,-0.001465,0.001828
1764073552623833589,2025-11-25 17:55:52.619,-1.470000,1.668000,282.687000,0.067000,0.313500,0.188300,0.308000,0.296000,-10.132000,0.001597,-0.000815,0.000733
1764073552648872052,2025-11-25 17:55:52.646,-1.468000,1.666000,282.687000,0.068900,0.311600,0.208000,0.260000,0.274000,-10.117000,0.003069,-0.001591,0.000189
1764073552674097237,2025-11-25 17:55:52.670,-1.464000,1.663000,282.691000,0.066300,0.321500,0.205600,0.294000,0.256000,-10.116000,0.003695,-0.001444,0.002307
1764073552697881144,2025-11-25 17:55:52.695,-1.459000,1.661000,282.691000,0.067000,0.315500,0.186100,0.284000,0.282000,-10.082000,0.003327,-0.000137,0.000542
1764073552722777922,2025-11-25 17:55:52.720,-1.453000,1.660000,282.691000,0.064300,0.315500,0.186000,0.278000,0.276000,-10.099000,0.004730,-0.000774,0.000844
1764073552747796904,2025-11-25 17:55:52.744,-1.446000,1.659000,282.692000,0.067000,0.313500,0.185100,0.317000,0.225000,-10.090000,0.005954,0.000417,0.001901
1764073552774114311,2025-11-25 17:55:52.770,-1.437000,1.658000,282.693000,0.066300,0.320500,0.207800,0.257000,0.276000,-10.102000,0.006221,0.000439,0.001617
1764073552797999829,2025-11-25 17:55:52.795,-1.427000,1.658000,282.694000,0.067100,0.316500,0.202400,0.288000,0.246000,-10.081000,0.008350,-0.000152,0.000899
1764073552823468866,2025-11-25 17:55:52.820,-1.417000,1.658000,282.696000,0.064300,0.316500,0.187100,0.300000,0.241000,-10.115000,0.006779,0.001010,0.002718
1764073552847704718,2025-11-25 17:55:52.844,-1.406000,1.661000,282.698000,0.064300,0.316600,0.205600,0.275000,0.268000,-10.165000,0.008977,0.000517,0.000816
1764073552875140848,2025-11-25 17:55:52.872,-1.396000,1.662000,282.700000,0.067100,0.315600,0.206800,0.311000,0.245000,-10.076000,0.006650,0.001856,0.001462
1764073552899321311,2025-11-25 17:55:52.896,-1.384000,1.665000,282.703000,0.069000,0.316500,0.210200,0.280000,0.240000,-10.138000,0.007502,0.003464,0.002165
1764073552922254385,2025-11-25 17:55:52.920,-1.372000,1.668000,282.707000,0.065200,0.314600,0.207800,0.307000,0.244000,-10.137000,0.008074,0.001494,0.001694
1764073552950948774,2025-11-25 17:55:52.948,-1.360000,1.672000,282.710000,0.066300,0.319500,0.207800,0.292000,0.243000,-10.099000,0.006714,0.003019,0.001862
1764073552972542033,2025-11-25 17:55:52.970,-1.349000,1.678000,282.713000,0.066200,0.317500,0.200200,0.276000,0.213000,-10.112000,0.007436,0.002473,0.002648
1764073552999020015,2025-11-25 17:55:52.995,-1.339000,1.683000,282.714000,0.065300,0.319500,0.204500,0.315000,0.212000,-10.138000,0.006418,0.004409,0.001185
1764073553064819681,2025-11-25 17:55:53.062,-1.322000,1.695000,282.718000,0.067100,0.318500,0.201300,0.285000,0.209000,-10.120000,0.003895,0.005398,0.001446
1764073553074358014,2025-11-25 17:55:53.072,-1.314000,1.700000,282.720000,0.065300,0.316600,0.206700,0.295000,0.202000,-10.125000,0.004344,0.004048,0.001433
1764073553098362811,2025-11-25 17:55:53.095,-1.307000,1.707000,282.721000,0.066300,0.322500,0.206700,0.272000,0.234000,-10.146000,0.001482,0.003922,0.001692
1764073553124669811,2025-11-25 17:55:53.121,-1.304000,1.714000,282.722000,0.067100,0.316500,0.202400,0.307000,0.194000,-10.152000,0.001111,0.004575,0.001984
1764073553150254274,2025-11-25 17:55:53.148,-1.302000,1.720000,282.723000,0.067400,0.327300,0.205600,0.304000,0.215000,-10.140000,0.000537,0.003907,0.000534
1764073553174622274,2025-11-25 17:55:53.171,-1.301000,1.725000,282.723000,0.066300,0.320500,0.202400,0.308000,0.231000,-10.111000,-0.000699,0.003232,0.000002
1764073553198328033,2025-11-25 17:55:53.196,-1.303000,1.730000,282.725000,0.066200,0.317500,0.205600,0.351000,0.184000,-10.135000,-0.002729,0.003562,-0.000250
1764073553222435403,2025-11-25 17:55:53.219,-1.304000,1.736000,282.725000,0.064300,0.313600,0.208800,0.296000,0.232000,-10.165000,-0.002689,0.003339,0.000203
1764073553248486051,2025-11-25 17:55:53.245,-1.311000,1.740000,282.725000,0.064400,0.317600,0.207700,0.347000,0.246000,-10.166000,-0.004552,0.002250,-0.000633
1764073553272660607,2025-11-25 17:55:53.269,-1.318000,1.743000,282.725000,0.067200,0.319500,0.205700,0.295000,0.243000,-10.134000,-0.004781,0.001384,0.000099
1764073553297752366,2025-11-25 17:55:53.295,-1.326000,1.746000,282.725000,0.064300,0.316600,0.202300,0.314000,0.206000,-10.131000,-0.005471,0.001376,0.000309
1764073553322396811,2025-11-25 17:55:53.319,-1.335000,1.747000,282.725000,0.068000,0.314600,0.206900,0.330000,0.237000,-10.105000,-0.006804,0.000150,-0.000613
1764073553350435033,2025-11-25 17:55:53.347,-1.345000,1.747000,282.726000,0.067200,0.318500,0.205700,0.297000,0.242000,-10.146000,-0.006800,-0.001276,0.000329
1764073553373918033,2025-11-25 17:55:53.370,-1.356000,1.746000,282.726000,0.067200,0.319500,0.202400,0.338000,0.237000,-10.103000,-0.007419,-0.001601,0.000552
1764073553397028551,2025-11-25 17:55:53.394,-1.367000,1.742000,282.727000,0.067200,0.325300,0.182800,0.308000,0.259000,-10.123000,-0.007023,-0.001392,0.000665
1764073553422714588,2025-11-25 17:55:53.420,-1.379000,1.737000,282.728000,0.064400,0.320500,0.206600,0.330000,0.261000,-10.110000,-0.008024,-0.003880,0.001650
1764073553448394792,2025-11-25 17:55:53.445,-1.391000,1.732000,282.730000,0.066200,0.317500,0.203500,0.331000,0.246000,-10.136000,-0.007833,-0.005082,0.002860
1764073553475864514,2025-11-25 17:55:53.473,-1.401000,1.725000,282.732000,0.068900,0.316400,0.186200,0.314000,0.272000,-10.120000,-0.006017,-0.004936,0.000751
1764073553499354977,2025-11-25 17:55:53.496,-1.410000,1.718000,282.735000,0.065300,0.321400,0.188200,0.328000,0.287000,-10.094000,-0.005157,-0.007010,0.000649
1764073553522690848,2025-11-25 17:55:53.520,-1.419000,1.708000,282.736000,0.067200,0.318500,0.203500,0.298000,0.274000,-10.127000,-0.004902,-0.007750,0.001762
1764073553549075718,2025-11-25 17:55:53.546,-1.426000,1.698000,282.739000,0.066200,0.318500,0.210000,0.270000,0.263000,-10.097000,-0.003070,-0.008317,0.002163
1764073553574132348,2025-11-25 17:55:53.571,-1.431000,1.686000,282.741000,0.066300,0.323400,0.206700,0.305000,0.263000,-10.140000,-0.002439,-0.006871,0.001187
1764073553597379810,2025-11-25 17:55:53.595,-1.434000,1.676000,282.742000,0.069000,0.317500,0.209100,0.299000,0.268000,-10.084000,-0.001552,-0.007311,0.000619
1764073553622442514,2025-11-25 17:55:53.620,-1.436000,1.665000,282.746000,0.066100,0.314500,0.188300,0.298000,0.273000,-10.092000,0.000234,-0.007731,0.001352
1764073553649000644,2025-11-25 17:55:53.646,-1.435000,1.653000,282.750000,0.068100,0.317500,0.205700,0.301000,0.273000,-10.123000,0.001842,-0.008621,0.000130
1764073553675650070,2025-11-25 17:55:53.672,-1.432000,1.643000,282.752000,0.067300,0.323400,0.210000,0.274000,0.263000,-10.105000,0.002179,-0.007373,0.001731
1764073553699590959,2025-11-25 17:55:53.697,-1.428000,1.634000,282.753000,0.068100,0.317500,0.210100,0.274000,0.238000,-10.085000,0.003463,-0.005884,0.001731
1764073553723332810,2025-11-25 17:55:53.720,-1.424000,1.625000,282.756000,0.067100,0.314600,0.207900,0.257000,0.261000,-10.084000,0.003169,-0.005527,0.001234
1764073553748633588,2025-11-25 17:55:53.745,-1.419000,1.619000,282.759000,0.067100,0.316500,0.207900,0.262000,0.238000,-10.082000,0.003663,-0.003759,0.000564
1764073553775275625,2025-11-25 17:55:53.772,-1.412000,1.613000,282.759000,0.067900,0.313500,0.187300,0.294000,0.242000,-10.119000,0.005193,-0.002052,0.002049
1764073553799547477,2025-11-25 17:55:53.796,-1.404000,1.610000,282.760000,0.068000,0.313600,0.204700,0.262000,0.251000,-10.118000,0.006062,-0.001000,0.000116
1764073553823500533,2025-11-25 17:55:53.820,-1.396000,1.610000,282.762000,0.067100,0.317500,0.189400,0.295000,0.223000,-10.130000,0.004724,0.001011,0.002012
1764073553850384144,2025-11-25 17:55:53.847,-1.389000,1.610000,282.765000,0.067100,0.316500,0.185000,0.269000,0.223000,-10.116000,0.004573,0.001321,0.001668
1764073553875538125,2025-11-25 17:55:53.873,-1.383000,1.613000,282.766000,0.067100,0.317500,0.185000,0.270000,0.246000,-10.119000,0.003187,0.001547,0.000915
1764073553899815255,2025-11-25 17:55:53.897,-1.377000,1.618000,282.769000,0.068100,0.317500,0.207900,0.306000,0.218000,-10.116000,0.003590,0.004491,0.002638
1764073553924759995,2025-11-25 17:55:53.921,-1.372000,1.623000,282.773000,0.066300,0.321500,0.207800,0.248000,0.220000,-10.140000,0.002577,0.004529,0.003993
1764073553951836829,2025-11-25 17:55:53.949,-1.367000,1.631000,282.775000,0.067100,0.314600,0.206800,0.300000,0.246000,-10.144000,0.001383,0.007586,0.001056
1764073553974140588,2025-11-25 17:55:53.971,-1.363000,1.640000,282.777000,0.066200,0.314600,0.210000,0.288000,0.224000,-10.082000,0.001367,0.007411,0.000748
1764073553998344810,2025-11-25 17:55:53.995,-1.362000,1.650000,282.781000,0.066200,0.318500,0.208900,0.287000,0.223000,-10.113000,-0.000645,0.008048,0.002187
1764073554065962606,2025-11-25 17:55:54.063,-1.363000,1.673000,282.788000,0.065300,0.320500,0.207800,0.288000,0.205000,-10.159000,-0.002189,0.009148,0.002143
1764073554075658477,2025-11-25 17:55:54.073,-1.365000,1.686000,282.789000,0.066200,0.318500,0.186100,0.302000,0.226000,-10.138000,-0.001322,0.007910,0.002515
1764073554099370051,2025-11-25 17:55:54.096,-1.367000,1.698000,282.793000,0.067900,0.314500,0.186200,0.289000,0.232000,-10.138000,-0.003154,0.008574,0.001865
1764073554123904347,2025-11-25 17:55:54.121,-1.371000,1.711000,282.797000,0.066000,0.311600,0.186100,0.281000,0.253000,-10.109000,-0.003800,0.008719,0.002233
1764073554149691458,2025-11-25 17:55:54.147,-1.376000,1.722000,282.800000,0.068000,0.314600,0.205800,0.325000,0.235000,-10.134000,-0.002249,0.007991,0.003758
1764073554173857218,2025-11-25 17:55:54.171,-1.381000,1.734000,282.804000,0.066100,0.314600,0.203500,0.288000,0.271000,-10.153000,-0.003811,0.008072,0.001694
1764073554197943588,2025-11-25 17:55:54.195,-1.386000,1.745000,282.806000,0.067100,0.314600,0.203500,0.301000,0.272000,-10.146000,-0.003721,0.005599,0.002604
1764073554223539829,2025-11-25 17:55:54.220,-1.392000,1.752000,282.810000,0.067100,0.317400,0.185000,0.321000,0.228000,-10.172000,-0.003129,0.005196,0.002488
1764073554250422866,2025-11-25 17:55:54.247,-1.396000,1.761000,282.814000,0.067100,0.318500,0.202400,0.298000,0.277000,-10.148000,-0.002428,0.004229,0.002725
1764073554276412977,2025-11-25 17:55:54.274,-1.400000,1.767000,282.816000,0.064200,0.314600,0.187100,0.341000,0.253000,-10.118000,-0.003421,0.003160,0.002205
1764073554298017792,2025-11-25 17:55:54.295,-1.405000,1.771000,282.818000,0.066300,0.323400,0.206700,0.336000,0.251000,-10.140000,-0.002280,0.001556,0.002079
1764073554322244162,2025-11-25 17:55:54.320,-1.407000,1.774000,282.819000,0.067100,0.316500,0.186100,0.303000,0.261000,-10.121000,-0.001278,0.000558,0.001329
1764073554349908199,2025-11-25 17:55:54.346,-1.409000,1.772000,282.819000,0.067100,0.316500,0.205700,0.346000,0.272000,-10.087000,0.000338,-0.001945,0.000721
1764073554375001458,2025-11-25 17:55:54.372,-1.410000,1.772000,282.822000,0.068100,0.316500,0.209000,0.323000,0.240000,-10.161000,0.000965,-0.001652,0.002590
1764073554398901125,2025-11-25 17:55:54.396,-1.409000,1.770000,282.823000,0.066200,0.321400,0.188200,0.337000,0.255000,-10.118000,0.001760,-0.003358,0.000863
1764073554422541328,2025-11-25 17:55:54.420,-1.408000,1.765000,282.824000,0.065300,0.316600,0.208900,0.291000,0.276000,-10.122000,0.001952,-0.004070,-0.000458
1764073554448142514,2025-11-25 17:55:54.445,-1.405000,1.759000,282.825000,0.066200,0.317500,0.203500,0.315000,0.278000,-10.128000,0.002869,-0.005335,0.001938
1764073554476138217,2025-11-25 17:55:54.473,-1.402000,1.753000,282.827000,0.067100,0.316500,0.186100,0.331000,0.271000,-10.135000,0.004090,-0.005112,0.000895
1764073554498187440,2025-11-25 17:55:54.495,-1.396000,1.745000,282.828000,0.068100,0.318500,0.207900,0.313000,0.237000,-10.088000,0.003894,-0.006597,0.001008
1764073554523094662,2025-11-25 17:55:54.520,-1.390000,1.736000,282.830000,0.066200,0.318500,0.206700,0.327000,0.218000,-10.151000,0.004050,-0.007208,0.000518
1764073554549327754,2025-11-25 17:55:54.546,-1.383000,1.726000,282.832000,0.069000,0.319400,0.205800,0.305000,0.253000,-10.138000,0.005358,-0.005747,0.000811
1764073554574282143,2025-11-25 17:55:54.571,-1.376000,1.719000,282.834000,0.067200,0.322400,0.197000,0.278000,0.258000,-10.108000,0.004732,-0.006604,0.000343
1764073554597910754,2025-11-25 17:55:54.595,-1.370000,1.709000,282.835000,0.067200,0.319500,0.204600,0.338000,0.247000,-10.130000,0.004625,-0.005707,0.001747
1764073554623484125,2025-11-25 17:55:54.620,-1.364000,1.701000,282.836000,0.067100,0.317500,0.206800,0.279000,0.258000,-10.130000,0.004923,-0.005685,0.001542
1764073554648153680,2025-11-25 17:55:54.645,-1.359000,1.692000,282.838000,0.068900,0.317400,0.183000,0.313000,0.243000,-10.105000,0.003029,-0.005529,0.000567
1764073554674172088,2025-11-25 17:55:54.670,-1.355000,1.682000,282.841000,0.067100,0.318400,0.180700,0.302000,0.219000,-10.118000,0.002198,-0.006851,0.000069
1764073554697311958,2025-11-25 17:55:54.694,-1.349000,1.674000,282.843000,0.068000,0.316500,0.205800,0.258000,0.225000,-10.116000,0.002621,-0.005228,0.001767
1764073554723067032,2025-11-25 17:55:54.720,-1.346000,1.665000,282.847000,0.065300,0.319500,0.204500,0.300000,0.227000,-10.123000,0.001530,-0.005789,0.001815
1764073554748989643,2025-11-25 17:55:54.745,-1.344000,1.659000,282.849000,0.066300,0.319500,0.206700,0.279000,0.211000,-10.115000,0.001265,-0.004009,0.002191
1764073554775158439,2025-11-25 17:55:54.772,-1.342000,1.652000,282.851000,0.066200,0.317500,0.207800,0.312000,0.218000,-10.107000,0.000206,-0.003619,0.001694
1764073554799558995,2025-11-25 17:55:54.797,-1.344000,1.646000,282.854000,0.070800,0.316500,0.207000,0.286000,0.224000,-10.124000,-0.001558,-0.003935,0.001990
1764073554823385013,2025-11-25 17:55:54.820,-1.345000,1.642000,282.859000,0.068100,0.316500,0.207900,0.285000,0.251000,-10.099000,-0.001477,-0.000776,0.002527
1764073554850262106,2025-11-25 17:55:54.847,-1.348000,1.642000,282.861000,0.068000,0.314600,0.209000,0.286000,0.214000,-10.096000,-0.001301,0.000969,0.003252
1764073554874387680,2025-11-25 17:55:54.871,-1.349000,1.644000,282.864000,0.068000,0.315500,0.209000,0.241000,0.234000,-10.102000,-0.002704,0.001735,0.001525
1764073554898774550,2025-11-25 17:55:54.895,-1.351000,1.649000,282.867000,0.068000,0.314600,0.206900,0.278000,0.230000,-10.146000,-0.003480,0.001953,0.002787
1764073554924538013,2025-11-25 17:55:54.921,-1.355000,1.652000,282.871000,0.068000,0.315500,0.207900,0.298000,0.230000,-10.124000,-0.002309,0.002884,0.002569
1764073554950574143,2025-11-25 17:55:54.948,-1.359000,1.656000,282.875000,0.068100,0.316500,0.207900,0.279000,0.247000,-10.117000,-0.004043,0.003069,0.002332
1764073554974514254,2025-11-25 17:55:54.971,-1.364000,1.661000,282.880000,0.068000,0.317400,0.188300,0.323000,0.243000,-10.125000,-0.003634,0.002746,0.001869
1764073554999077865,2025-11-25 17:55:54.995,-1.370000,1.666000,282.882000,0.067200,0.319500,0.205700,0.293000,0.241000,-10.095000,-0.004269,0.002850,0.002990
1764073555064702791,2025-11-25 17:55:55.062,-1.382000,1.674000,282.889000,0.068100,0.318500,0.204700,0.288000,0.221000,-10.121000,-0.003285,0.003164,0.002438
1764073555074237624,2025-11-25 17:55:55.071,-1.386000,1.677000,282.893000,0.067100,0.315600,0.205700,0.292000,0.232000,-10.135000,-0.003416,0.000945,0.003637
1764073555099945421,2025-11-25 17:55:55.097,-1.392000,1.680000,282.895000,0.069000,0.318500,0.206900,0.291000,0.263000,-10.125000,-0.003616,0.001822,0.002468
1764073555125669124,2025-11-25 17:55:55.123,-1.398000,1.680000,282.899000,0.069000,0.317500,0.208000,0.298000,0.269000,-10.138000,-0.003797,0.002668,0.002241
1764073555151379532,2025-11-25 17:55:55.149,-1.402000,1.684000,282.901000,0.069100,0.320400,0.209000,0.288000,0.251000,-10.126000,-0.002464,0.001618,0.002461
1764073555173867272,2025-11-25 17:55:55.170,-1.407000,1.686000,282.903000,0.068000,0.316500,0.206800,0.315000,0.233000,-10.136000,-0.002371,0.001261,0.001866
1764073555196751439,2025-11-25 17:55:55.194,-1.408000,1.689000,282.906000,0.067200,0.321500,0.207800,0.279000,0.258000,-10.101000,-0.000651,0.002805,0.002278
1764073555223774421,2025-11-25 17:55:55.221,-1.411000,1.691000,282.909000,0.066200,0.318500,0.208900,0.323000,0.252000,-10.135000,-0.001792,0.002953,0.002529
1764073555248882754,2025-11-25 17:55:55.246,-1.414000,1.693000,282.913000,0.067100,0.316500,0.206800,0.293000,0.272000,-10.166000,0.000068,0.001556,0.003030
1764073555274475069,2025-11-25 17:55:55.271,-1.415000,1.696000,282.917000,0.069800,0.313500,0.207000,0.272000,0.262000,-10.095000,0.000551,0.002461,0.002136
1764073555297399532,2025-11-25 17:55:55.295,-1.416000,1.697000,282.922000,0.068900,0.314500,0.208000,0.285000,0.234000,-10.126000,0.000640,0.001977,0.003433
1764073555323079495,2025-11-25 17:55:55.320,-1.415000,1.700000,282.926000,0.068900,0.317400,0.185100,0.307000,0.253000,-10.143000,0.000784,0.002124,0.003353
1764073555350146532,2025-11-25 17:55:55.347,-1.414000,1.704000,282.931000,0.069000,0.319400,0.204700,0.300000,0.245000,-10.152000,0.001145,0.001700,0.003498
1764073555371785976,2025-11-25 17:55:55.369,-1.412000,1.706000,282.936000,0.068100,0.322300,0.185000,0.305000,0.257000,-10.124000,0.001851,0.003137,0.004423
1764073555398775958,2025-11-25 17:55:55.396,-1.409000,1.711000,282.941000,0.068100,0.321400,0.200300,0.288000,0.248000,-10.133000,0.002312,0.002501,0.002738
1764073555422894624,2025-11-25 17:55:55.420,-1.406000,1.715000,282.944000,0.066400,0.325400,0.206700,0.286000,0.222000,-10.099000,0.002244,0.002116,0.002185
1764073555448138087,2025-11-25 17:55:55.445,-1.402000,1.717000,282.950000,0.067300,0.324400,0.204600,0.270000,0.236000,-10.094000,0.002238,0.001127,0.003024
1764073555473432587,2025-11-25 17:55:55.470,-1.397000,1.720000,282.953000,0.067200,0.320500,0.208900,0.323000,0.237000,-10.123000,0.002988,0.002659,0.003444
1764073555497826291,2025-11-25 17:55:55.495,-1.393000,1.722000,282.957000,0.066200,0.318500,0.208900,0.345000,0.264000,-10.123000,0.002293,0.001716,0.001913
1764073555522767791,2025-11-25 17:55:55.520,-1.390000,1.724000,282.960000,0.068900,0.314500,0.203600,0.296000,0.237000,-10.121000,0.002588,0.000744,0.002839
1764073555548439698,2025-11-25 17:55:55.545,-1.386000,1.725000,282.965000,0.066300,0.319500,0.208900,0.313000,0.250000,-10.155000,0.002292,0.000700,0.004544
1764073555574573772,2025-11-25 17:55:55.571,-1.384000,1.724000,282.968000,0.067100,0.315600,0.204600,0.321000,0.252000,-10.155000,0.001771,-0.000348,0.003170
1764073555598253291,2025-11-25 17:55:55.596,-1.382000,1.725000,282.971000,0.069000,0.317500,0.203600,0.319000,0.231000,-10.118000,0.001412,-0.000698,0.002407
1764073555624655309,2025-11-25 17:55:55.621,-1.378000,1.723000,282.975000,0.066100,0.313600,0.204600,0.309000,0.254000,-10.094000,0.001808,-0.001638,0.002730
1764073555648507846,2025-11-25 17:55:55.645,-1.375000,1.720000,282.978000,0.070000,0.320400,0.204700,0.279000,0.273000,-10.091000,0.003102,-0.002488,0.002184
1764073555675173920,2025-11-25 17:55:55.672,-1.373000,1.716000,282.981000,0.069900,0.317400,0.186300,0.345000,0.249000,-10.135000,0.001463,-0.003451,0.003130
1764073555699162791,2025-11-25 17:55:55.696,-1.371000,1.712000,282.983000,0.068200,0.324400,0.205700,0.316000,0.242000,-10.104000,0.002724,-0.003213,0.002301
1764073555721136920,2025-11-25 17:55:55.719,-1.368000,1.706000,282.986000,0.067100,0.319400,0.186100,0.307000,0.245000,-10.105000,0.002081,-0.004706,0.001486
1764073555748668105,2025-11-25 17:55:55.745,-1.365000,1.699000,282.989000,0.068100,0.322400,0.188300,0.329000,0.237000,-10.108000,0.001802,-0.004411,0.002516
1764073555775024309,2025-11-25 17:55:55.772,-1.362000,1.692000,282.991000,0.069000,0.315500,0.205800,0.287000,0.253000,-10.118000,0.001244,-0.004938,0.001994
1764073555798872439,2025-11-25 17:55:55.796,-1.362000,1.685000,282.994000,0.068100,0.316500,0.206800,0.281000,0.251000,-10.113000,0.000457,-0.004186,0.001325
1764073555823184680,2025-11-25 17:55:55.820,-1.361000,1.677000,282.995000,0.068100,0.319500,0.207900,0.288000,0.234000,-10.146000,0.000911,-0.005130,0.000444
1764073555849848124,2025-11-25 17:55:55.846,-1.360000,1.671000,282.997000,0.068000,0.314500,0.198200,0.289000,0.245000,-10.098000,0.001499,-0.004349,0.001384
1764073555875740642,2025-11-25 17:55:55.873,-1.359000,1.663000,283.000000,0.069100,0.320400,0.206900,0.306000,0.241000,-10.089000,0.000309,-0.003923,0.002252
1764073555897868013,2025-11-25 17:55:55.895,-1.358000,1.658000,283.004000,0.068000,0.316500,0.187300,0.271000,0.246000,-10.132000,-0.000133,-0.002675,0.002278
1764073555923759865,2025-11-25 17:55:55.921,-1.358000,1.652000,283.008000,0.070000,0.319400,0.208000,0.289000,0.240000,-10.134000,-0.000064,-0.002235,0.002670
1764073555951844531,2025-11-25 17:55:55.949,-1.359000,1.647000,283.010000,0.068100,0.316500,0.206900,0.275000,0.244000,-10.109000,-0.000469,-0.001441,0.002089
1764073555973107568,2025-11-25 17:55:55.970,-1.359000,1.645000,283.013000,0.068100,0.316500,0.212300,0.262000,0.234000,-10.096000,-0.000846,-0.000613,0.002119
1764073555997731161,2025-11-25 17:55:55.995,-1.361000,1.643000,283.016000,0.067000,0.315500,0.186100,0.300000,0.221000,-10.105000,-0.001686,0.000945,0.003015
1764073556065623161,2025-11-25 17:55:56.063,-1.366000,1.644000,283.023000,0.067900,0.312500,0.187300,0.262000,0.238000,-10.136000,-0.002437,0.000909,0.001871
1764073556074896124,2025-11-25 17:55:56.072,-1.369000,1.644000,283.027000,0.067900,0.313500,0.187300,0.297000,0.213000,-10.119000,-0.002489,0.001648,0.003524
1764073556098855716,2025-11-25 17:55:56.096,-1.373000,1.647000,283.030000,0.068900,0.316400,0.186200,0.274000,0.250000,-10.146000,-0.002828,0.003011,0.004026
1764073556124939439,2025-11-25 17:55:56.121,-1.377000,1.649000,283.035000,0.069000,0.315500,0.209100,0.325000,0.221000,-10.136000,-0.003244,0.002070,0.003050
1764073556148972605,2025-11-25 17:55:56.146,-1.382000,1.653000,283.037000,0.069000,0.318500,0.206900,0.306000,0.236000,-10.138000,-0.002741,0.003939,0.003956
1764073556176220661,2025-11-25 17:55:56.173,-1.386000,1.660000,283.040000,0.069900,0.316500,0.202600,0.262000,0.251000,-10.125000,-0.003206,0.005271,0.004002
1764073556197463568,2025-11-25 17:55:56.194,-1.391000,1.663000,283.045000,0.070000,0.319400,0.208000,0.304000,0.248000,-10.128000,-0.003996,0.002225,0.004459
1764073556222210939,2025-11-25 17:55:56.219,-1.396000,1.670000,283.050000,0.068000,0.314500,0.203600,0.292000,0.241000,-10.104000,-0.004085,0.002888,0.004701
1764073556248719383,2025-11-25 17:55:56.246,-1.401000,1.676000,283.054000,0.067100,0.316500,0.182900,0.303000,0.248000,-10.116000,-0.002418,0.004699,0.002978
1764073556274289735,2025-11-25 17:55:56.271,-1.405000,1.681000,283.058000,0.067100,0.316500,0.206800,0.282000,0.275000,-10.117000,-0.001913,0.003229,0.003931
1764073556297860735,2025-11-25 17:55:56.295,-1.409000,1.685000,283.063000,0.069900,0.315500,0.210200,0.318000,0.248000,-10.146000,-0.002492,0.003254,0.003240
1764073556322692216,2025-11-25 17:55:56.320,-1.412000,1.690000,283.068000,0.070800,0.314500,0.210300,0.329000,0.256000,-10.120000,-0.001203,0.003138,0.003994
1764073556347742087,2025-11-25 17:55:56.345,-1.414000,1.695000,283.072000,0.066100,0.314600,0.205700,0.296000,0.272000,-10.107000,-0.000935,0.002486,0.002269
1764073556375178438,2025-11-25 17:55:56.372,-1.417000,1.699000,283.077000,0.069900,0.315500,0.210200,0.342000,0.249000,-10.140000,-0.001316,0.002139,0.003507
1764073556398876642,2025-11-25 17:55:56.396,-1.419000,1.702000,283.080000,0.068000,0.315500,0.207900,0.302000,0.264000,-10.111000,-0.000201,0.001583,0.002735
1764073556421776716,2025-11-25 17:55:56.419,-1.419000,1.706000,283.084000,0.070800,0.316500,0.208100,0.284000,0.247000,-10.082000,0.000201,0.000861,0.002413
1764073556447785346,2025-11-25 17:55:56.445,-1.419000,1.706000,283.088000,0.069900,0.316500,0.202600,0.335000,0.236000,-10.146000,-0.000064,0.000891,0.002309
1764073556473934883,2025-11-25 17:55:56.471,-1.419000,1.707000,283.092000,0.068000,0.316500,0.182900,0.275000,0.257000,-10.125000,0.001442,-0.000173,0.003633
1764073556497628290,2025-11-25 17:55:56.495,-1.419000,1.709000,283.095000,0.069900,0.318400,0.180800,0.335000,0.260000,-10.140000,0.000567,-0.000599,0.002386
1764073556523068735,2025-11-25 17:55:56.520,-1.417000,1.708000,283.099000,0.067200,0.319500,0.206800,0.291000,0.245000,-10.100000,0.001514,-0.001961,0.001980
1764073556547952161,2025-11-25 17:55:56.545,-1.414000,1.707000,283.103000,0.068100,0.318500,0.204700,0.310000,0.264000,-10.112000,0.002424,-0.001056,0.003141
1764073556575299253,2025-11-25 17:55:56.572,-1.413000,1.704000,283.106000,0.069900,0.316500,0.207000,0.320000,0.248000,-10.146000,0.001753,-0.002290,0.002244
1764073556598439661,2025-11-25 17:55:56.595,-1.410000,1.701000,283.109000,0.068100,0.318500,0.202500,0.290000,0.247000,-10.134000,0.001635,-0.001698,0.001832
1764073556622391420,2025-11-25 17:55:56.619,-1.407000,1.699000,283.113000,0.067100,0.315600,0.204600,0.298000,0.238000,-10.120000,0.002967,-0.002430,0.003345
1764073556649425383,2025-11-25 17:55:56.646,-1.404000,1.695000,283.117000,0.068100,0.322300,0.182900,0.300000,0.266000,-10.114000,0.001860,-0.003581,0.001818
1764073556674483272,2025-11-25 17:55:56.671,-1.401000,1.691000,283.119000,0.067100,0.316600,0.209000,0.305000,0.242000,-10.147000,0.001956,-0.002932,0.001968
1764073556698206864,2025-11-25 17:55:56.695,-1.398000,1.689000,283.122000,0.068100,0.320400,0.185100,0.317000,0.259000,-10.137000,0.001932,-0.002053,0.002765
1764073556722647605,2025-11-25 17:55:56.720,-1.396000,1.687000,283.125000,0.069900,0.316400,0.186300,0.305000,0.243000,-10.152000,0.002389,-0.001773,0.001408
1764073556750424586,2025-11-25 17:55:56.746,-1.392000,1.684000,283.129000,0.071800,0.316500,0.208100,0.284000,0.241000,-10.137000,0.002334,-0.002256,0.002601
1764073556771376920,2025-11-25 17:55:56.768,-1.389000,1.682000,283.134000,0.068100,0.317500,0.203600,0.300000,0.228000,-10.147000,0.002145,-0.001195,0.003252
1764073556798776031,2025-11-25 17:55:56.795,-1.386000,1.680000,283.139000,0.069100,0.321400,0.206900,0.265000,0.269000,-10.094000,0.003091,-0.002178,0.001886
1764073556824082401,2025-11-25 17:55:56.821,-1.383000,1.677000,283.143000,0.069900,0.316500,0.203700,0.306000,0.246000,-10.134000,0.002447,-0.001437,0.002816
1764073556850504660,2025-11-25 17:55:56.847,-1.380000,1.675000,283.146000,0.069900,0.318400,0.203700,0.252000,0.263000,-10.130000,0.002285,0.000403,0.004406
1764073556875641901,2025-11-25 17:55:56.872,-1.378000,1.675000,283.151000,0.067100,0.318400,0.184000,0.289000,0.245000,-10.131000,0.001730,-0.000220,0.002332
1764073556898139457,2025-11-25 17:55:56.895,-1.375000,1.674000,283.155000,0.068900,0.317400,0.183000,0.294000,0.234000,-10.116000,0.001696,-0.000448,0.002782
1764073556923727808,2025-11-25 17:55:56.920,-1.373000,1.675000,283.159000,0.070900,0.319400,0.203700,0.266000,0.243000,-10.144000,0.000958,0.002272,0.002727
1764073556951285512,2025-11-25 17:55:56.949,-1.372000,1.676000,283.163000,0.069000,0.319400,0.185100,0.293000,0.244000,-10.128000,0.001834,0.000478,0.003069
1764073556973010271,2025-11-25 17:55:56.970,-1.371000,1.678000,283.167000,0.069900,0.317400,0.186300,0.301000,0.246000,-10.098000,0.000204,0.000552,0.002037
1764073556998779179,2025-11-25 17:55:56.995,-1.369000,1.679000,283.171000,0.069900,0.315500,0.202600,0.298000,0.231000,-10.086000,0.000725,0.001225,0.004559
1764073557063369253,2025-11-25 17:55:57.061,-1.367000,1.683000,283.177000,0.069100,0.320400,0.205800,0.271000,0.231000,-10.159000,-0.001039,0.002474,0.003480
1764073557072806994,2025-11-25 17:55:57.070,-1.367000,1.685000,283.180000,0.068000,0.317500,0.188400,0.327000,0.193000,-10.137000,-0.000217,0.001688,0.003274
1764073557098503531,2025-11-25 17:55:57.095,-1.369000,1.687000,283.185000,0.069900,0.320400,0.184100,0.284000,0.242000,-10.129000,-0.002099,0.000662,0.004082
1764073557122232771,2025-11-25 17:55:57.119,-1.370000,1.689000,283.188000,0.069000,0.316500,0.209100,0.304000,0.248000,-10.077000,-0.002303,-0.000081,0.003649
1764073557146459605,2025-11-25 17:55:57.144,-1.372000,1.690000,283.191000,0.069900,0.315500,0.209100,0.317000,0.230000,-10.081000,-0.002848,-0.000508,0.002188
1764073557173353216,2025-11-25 17:55:57.170,-1.376000,1.691000,283.196000,0.069800,0.315400,0.186300,0.291000,0.259000,-10.108000,-0.003676,0.000556,0.001680
1764073557197642049,2025-11-25 17:55:57.195,-1.381000,1.692000,283.200000,0.069800,0.314500,0.187400,0.323000,0.236000,-10.094000,-0.004358,-0.000335,0.001961
1764073557222783901,2025-11-25 17:55:57.220,-1.386000,1.691000,283.204000,0.069000,0.321400,0.188400,0.331000,0.216000,-10.107000,-0.003132,-0.001133,0.003273
1764073557248330697,2025-11-25 17:55:57.245,-1.390000,1.692000,283.207000,0.070000,0.322400,0.209100,0.273000,0.248000,-10.112000,-0.004582,-0.002307,0.001990
1764073557274135456,2025-11-25 17:55:57.271,-1.396000,1.690000,283.211000,0.070800,0.317400,0.184200,0.320000,0.251000,-10.095000,-0.004308,-0.001626,0.001239
1764073557297726105,2025-11-25 17:55:57.295,-1.401000,1.687000,283.216000,0.068900,0.314500,0.205800,0.278000,0.239000,-10.130000,-0.003238,-0.001572,0.003762
1764073557322551382,2025-11-25 17:55:57.320,-1.406000,1.685000,283.220000,0.072800,0.321400,0.204900,0.329000,0.271000,-10.090000,-0.002349,-0.002898,0.003643
1764073557349535808,2025-11-25 17:55:57.346,-1.412000,1.682000,283.224000,0.070900,0.317500,0.208100,0.304000,0.264000,-10.115000,-0.002453,-0.002788,0.001847
1764073557375145864,2025-11-25 17:55:57.371,-1.414000,1.680000,283.228000,0.068900,0.315500,0.185200,0.275000,0.267000,-10.110000,-0.002164,-0.003353,0.002954
1764073557397489475,2025-11-25 17:55:57.395,-1.418000,1.675000,283.233000,0.070900,0.318400,0.203700,0.325000,0.241000,-10.102000,-0.001374,-0.003566,0.004515
1764073557422733290,2025-11-25 17:55:57.420,-1.420000,1.670000,283.238000,0.069800,0.315400,0.183000,0.277000,0.305000,-10.161000,0.000202,-0.003205,0.001528
1764073557448050290,2025-11-25 17:55:57.445,-1.421000,1.666000,283.241000,0.069000,0.316500,0.202600,0.292000,0.274000,-10.088000,0.000396,-0.002610,0.002736
1764073557472073012,2025-11-25 17:55:57.469,-1.422000,1.661000,283.246000,0.069800,0.315400,0.183000,0.304000,0.263000,-10.113000,-0.000012,-0.001958,0.002918
1764073557497939975,2025-11-25 17:55:57.495,-1.422000,1.658000,283.250000,0.069800,0.313500,0.188500,0.292000,0.281000,-10.126000,0.001180,-0.001633,0.001743
1764073557522394197,2025-11-25 17:55:57.519,-1.420000,1.656000,283.254000,0.068100,0.316500,0.209000,0.304000,0.242000,-10.116000,0.001517,-0.002044,0.003327
1764073557548418604,2025-11-25 17:55:57.545,-1.417000,1.655000,283.258000,0.068000,0.315500,0.185100,0.287000,0.236000,-10.120000,0.002780,-0.000645,0.003505
1764073557573905401,2025-11-25 17:55:57.571,-1.412000,1.654000,283.262000,0.069900,0.314500,0.208100,0.307000,0.276000,-10.131000,0.002657,-0.000035,0.003741
1764073557596887901,2025-11-25 17:55:57.594,-1.408000,1.653000,283.265000,0.067100,0.316500,0.201400,0.289000,0.227000,-10.141000,0.003428,0.000108,0.003761
1764073557623380549,2025-11-25 17:55:57.620,-1.402000,1.656000,283.269000,0.069900,0.317500,0.208000,0.269000,0.256000,-10.142000,0.003805,0.001251,0.003403
1764073557647558401,2025-11-25 17:55:57.645,-1.397000,1.659000,283.272000,0.070800,0.317400,0.182000,0.305000,0.247000,-10.155000,0.003828,0.002725,0.001614
1764073557674007975,2025-11-25 17:55:57.671,-1.392000,1.663000,283.277000,0.069800,0.314500,0.183000,0.307000,0.236000,-10.085000,0.004022,0.002533,0.004581
1764073557697492086,2025-11-25 17:55:57.695,-1.387000,1.669000,283.282000,0.069900,0.319400,0.184100,0.280000,0.211000,-10.124000,0.003179,0.003982,0.003169
1764073557723007049,2025-11-25 17:55:57.720,-1.382000,1.673000,283.287000,0.070900,0.320300,0.185200,0.310000,0.230000,-10.119000,0.002864,0.004386,0.002387
1764073557747759401,2025-11-25 17:55:57.745,-1.378000,1.679000,283.292000,0.069800,0.316400,0.183000,0.272000,0.230000,-10.108000,0.002551,0.004760,0.001883
1764073557772544678,2025-11-25 17:55:57.770,-1.374000,1.684000,283.296000,0.068200,0.321400,0.207900,0.325000,0.225000,-10.115000,0.000892,0.003573,0.003452
1764073557797414067,2025-11-25 17:55:57.794,-1.371000,1.688000,283.300000,0.069900,0.316500,0.202600,0.296000,0.241000,-10.093000,-0.000043,0.002666,0.003221
1764073557822497308,2025-11-25 17:55:57.820,-1.369000,1.692000,283.303000,0.069900,0.313600,0.210200,0.261000,0.220000,-10.131000,-0.000044,0.002976,0.003863
1764073557849277715,2025-11-25 17:55:57.846,-1.368000,1.696000,283.307000,0.070800,0.316400,0.185200,0.317000,0.211000,-10.128000,-0.000454,0.003288,0.002366
1764073557874766382,2025-11-25 17:55:57.871,-1.368000,1.700000,283.311000,0.069000,0.315500,0.209100,0.299000,0.221000,-10.117000,-0.002075,0.002463,0.003825
1764073557898769623,2025-11-25 17:55:57.896,-1.369000,1.704000,283.316000,0.069800,0.316400,0.184100,0.321000,0.204000,-10.118000,-0.002366,0.002513,0.002822
1764073557923353086,2025-11-25 17:55:57.920,-1.370000,1.706000,283.320000,0.067000,0.315500,0.178500,0.316000,0.215000,-10.129000,-0.002283,0.001683,0.003257
1764073557950633863,2025-11-25 17:55:57.947,-1.374000,1.708000,283.323000,0.068900,0.314500,0.202600,0.259000,0.230000,-10.138000,-0.003803,0.001120,0.002878
1764073557974135289,2025-11-25 17:55:57.971,-1.378000,1.708000,283.327000,0.068000,0.317400,0.187300,0.329000,0.240000,-10.114000,-0.003970,0.000268,0.001853
1764073557998216993,2025-11-25 17:55:57.995,-1.381000,1.708000,283.330000,0.068000,0.313600,0.201400,0.311000,0.240000,-10.119000,-0.002508,0.000514,0.003166
1764073558066663049,2025-11-25 17:55:58.064,-1.391000,1.705000,283.339000,0.070000,0.322300,0.179700,0.342000,0.249000,-10.083000,-0.004538,-0.001461,0.001833
1764073558076435363,2025-11-25 17:55:58.073,-1.395000,1.704000,283.343000,0.069900,0.314500,0.207000,0.305000,0.240000,-10.114000,-0.002762,-0.001711,0.002926
1764073558097250011,2025-11-25 17:55:58.094,-1.399000,1.702000,283.346000,0.070000,0.322400,0.205800,0.310000,0.245000,-10.119000,-0.003266,-0.001572,0.002506
1764073558124520900,2025-11-25 17:55:58.121,-1.403000,1.699000,283.350000,0.069000,0.317500,0.210200,0.264000,0.249000,-10.099000,-0.002461,-0.001068,0.001456
1764073558151353511,2025-11-25 17:55:58.148,-1.405000,1.696000,283.355000,0.069000,0.317400,0.188400,0.312000,0.230000,-10.113000,-0.002315,-0.002007,0.002886
1764073558172449474,2025-11-25 17:55:58.169,-1.409000,1.693000,283.359000,0.070900,0.317500,0.205900,0.314000,0.259000,-10.100000,-0.001195,-0.001189,0.003102
1764073558197332363,2025-11-25 17:55:58.194,-1.411000,1.690000,283.364000,0.069900,0.317400,0.183000,0.282000,0.271000,-10.112000,-0.001851,-0.002127,0.003051
1764073558224190363,2025-11-25 17:55:58.222,-1.414000,1.688000,283.368000,0.070700,0.311600,0.209200,0.340000,0.226000,-10.089000,-0.000942,-0.002555,0.003764
1764073558248660678,2025-11-25 17:55:58.245,-1.416000,1.685000,283.373000,0.069900,0.319400,0.185200,0.299000,0.263000,-10.127000,-0.000465,-0.001251,0.004108
1764073558275932678,2025-11-25 17:55:58.273,-1.416000,1.683000,283.377000,0.068900,0.314600,0.209100,0.284000,0.249000,-10.107000,-0.000108,-0.002583,0.003001
1764073558297067808,2025-11-25 17:55:58.294,-1.415000,1.678000,283.381000,0.071700,0.313500,0.210300,0.299000,0.234000,-10.127000,0.000673,-0.002861,0.003543
1764073558322825678,2025-11-25 17:55:58.320,-1.415000,1.675000,283.388000,0.070900,0.320400,0.208100,0.281000,0.282000,-10.118000,0.000189,-0.002043,0.004669
1764073558348343215,2025-11-25 17:55:58.345,-1.414000,1.672000,283.394000,0.068900,0.313600,0.210200,0.310000,0.252000,-10.048000,-0.000965,-0.002358,0.003391
1764073558374273715,2025-11-25 17:55:58.371,-1.415000,1.669000,283.400000,0.071700,0.313500,0.207100,0.299000,0.196000,-10.091000,-0.001440,-0.001836,0.003840
1764073558398104474,2025-11-25 17:55:58.395,-1.415000,1.666000,283.406000,0.069800,0.312500,0.186300,0.278000,0.222000,-10.144000,-0.001442,-0.002325,0.003984
1764073558422703937,2025-11-25 17:55:58.419,-1.416000,1.663000,283.409000,0.072600,0.316400,0.187500,0.298000,0.268000,-10.112000,-0.001166,-0.001937,0.001953
1764073558446998196,2025-11-25 17:55:58.444,-1.418000,1.659000,283.414000,0.072600,0.313400,0.188600,0.291000,0.244000,-10.112000,-0.001596,-0.003508,0.003065
1764073558475280715,2025-11-25 17:55:58.472,-1.421000,1.656000,283.418000,0.071700,0.315500,0.201600,0.289000,0.228000,-10.088000,-0.002907,-0.003493,0.003654
1764073558500082085,2025-11-25 17:55:58.497,-1.423000,1.653000,283.422000,0.071700,0.312500,0.202700,0.307000,0.249000,-10.168000,-0.002033,-0.001951,0.001704
1764073558522140437,2025-11-25 17:55:58.519,-1.426000,1.652000,283.425000,0.072800,0.320400,0.203800,0.271000,0.224000,-10.106000,-0.001049,-0.000603,0.001626
1764073558548878104,2025-11-25 17:55:58.546,-1.430000,1.648000,283.429000,0.069800,0.314500,0.186300,0.310000,0.232000,-10.107000,-0.003491,-0.001568,0.003579
1764073558573474289,2025-11-25 17:55:58.570,-1.434000,1.646000,283.432000,0.070800,0.314500,0.208100,0.277000,0.252000,-10.128000,-0.004046,-0.001811,0.002078
1764073558598710511,2025-11-25 17:55:58.596,-1.439000,1.644000,283.435000,0.070800,0.312500,0.207000,0.264000,0.220000,-10.131000,-0.004850,-0.001046,0.002588
1764073558624275382,2025-11-25 17:55:58.621,-1.444000,1.641000,283.438000,0.071800,0.316500,0.210300,0.300000,0.221000,-10.107000,-0.003640,-0.000501,0.001789
1764073558647810826,2025-11-25 17:55:58.645,-1.449000,1.642000,283.440000,0.071700,0.314500,0.208200,0.292000,0.266000,-10.080000,-0.005058,0.000157,0.001845
1764073558673896363,2025-11-25 17:55:58.670,-1.455000,1.642000,283.443000,0.072600,0.314400,0.188600,0.283000,0.227000,-10.144000,-0.006029,0.000647,0.001077
1764073558698401881,2025-11-25 17:55:58.696,-1.461000,1.641000,283.444000,0.070800,0.316400,0.185300,0.291000,0.225000,-10.136000,-0.005931,-0.000208,0.001584
1764073558722270696,2025-11-25 17:55:58.719,-1.467000,1.643000,283.447000,0.068900,0.314500,0.189500,0.279000,0.232000,-10.109000,-0.004920,0.000780,0.001038
1764073558749155419,2025-11-25 17:55:58.746,-1.474000,1.644000,283.449000,0.073500,0.312400,0.186500,0.287000,0.249000,-10.141000,-0.004896,0.002248,0.001620
1764073558775443678,2025-11-25 17:55:58.773,-1.481000,1.647000,283.453000,0.070900,0.317500,0.205900,0.257000,0.260000,-10.179000,-0.004301,0.002410,0.002782
1764073558798475956,2025-11-25 17:55:58.796,-1.487000,1.652000,283.455000,0.072700,0.315500,0.206000,0.315000,0.281000,-10.174000,-0.004475,0.003367,0.002508
1764073558823798900,2025-11-25 17:55:58.821,-1.490000,1.658000,283.459000,0.073600,0.318300,0.181000,0.305000,0.268000,-10.164000,-0.001028,0.005081,0.001666
1764073558850180159,2025-11-25 17:55:58.846,-1.493000,1.665000,283.461000,0.070800,0.318400,0.184100,0.297000,0.276000,-10.168000,-0.000274,0.005877,0.002396
1764073558873713585,2025-11-25 17:55:58.871,-1.493000,1.674000,283.463000,0.073500,0.315400,0.184300,0.292000,0.277000,-10.174000,0.002231,0.006930,0.000774
1764073558898561104,2025-11-25 17:55:58.895,-1.491000,1.683000,283.463000,0.070800,0.316500,0.207000,0.262000,0.291000,-10.195000,0.001927,0.006723,0.000523
1764073558924853289,2025-11-25 17:55:58.921,-1.485000,1.692000,283.466000,0.071800,0.315500,0.209200,0.293000,0.272000,-10.145000,0.004333,0.007996,0.002665
1764073558952593937,2025-11-25 17:55:58.950,-1.476000,1.702000,283.469000,0.069800,0.313500,0.187400,0.295000,0.313000,-10.163000,0.008379,0.007861,0.001435
1764073558974116715,2025-11-25 17:55:58.971,-1.465000,1.713000,283.471000,0.067100,0.315500,0.193800,0.296000,0.314000,-10.189000,0.010085,0.007642,0.001945
1764073558998481307,2025-11-25 17:55:58.995,-1.450000,1.723000,283.474000,0.069800,0.312600,0.209200,0.310000,0.282000,-10.170000,0.012137,0.007819,0.002810
1764073559065981029,2025-11-25 17:55:59.063,-1.410000,1.744000,283.482000,0.068900,0.316400,0.184100,0.314000,0.296000,-10.163000,0.016789,0.005654,0.003068
1764073559075276918,2025-11-25 17:55:59.073,-1.386000,1.753000,283.484000,0.068900,0.313600,0.204800,0.338000,0.271000,-10.162000,0.018066,0.004746,0.003222
1764073559100127733,2025-11-25 17:55:59.097,-1.359000,1.762000,283.488000,0.068900,0.316400,0.185200,0.313000,0.293000,-10.109000,0.018858,0.006063,0.003332
1764073559122974696,2025-11-25 17:55:59.120,-1.332000,1.769000,283.491000,0.072000,0.325300,0.205900,0.326000,0.271000,-10.146000,0.020047,0.003689,0.002445
1764073559150036215,2025-11-25 17:55:59.147,-1.303000,1.774000,283.496000,0.071800,0.318400,0.185300,0.306000,0.230000,-10.124000,0.020398,0.002447,0.003546
1764073559173098826,2025-11-25 17:55:59.170,-1.275000,1.776000,283.501000,0.069000,0.315500,0.203700,0.329000,0.204000,-10.135000,0.019960,0.000487,0.002986
1764073559199642363,2025-11-25 17:55:59.196,-1.247000,1.777000,283.505000,0.070900,0.322300,0.184100,0.359000,0.198000,-10.071000,0.019148,-0.000143,0.002936
1764073559224934122,2025-11-25 17:55:59.222,-1.221000,1.776000,283.509000,0.070800,0.317400,0.180900,0.321000,0.193000,-10.076000,0.016643,-0.002323,0.003762
1764073559249388955,2025-11-25 17:55:59.246,-1.198000,1.771000,283.512000,0.069000,0.315500,0.205800,0.343000,0.167000,-10.110000,0.014035,-0.005685,0.002424
1764073559274410955,2025-11-25 17:55:59.271,-1.180000,1.762000,283.515000,0.070000,0.319400,0.206900,0.305000,0.174000,-10.086000,0.010751,-0.007113,0.001720
1764073559298494752,2025-11-25 17:55:59.295,-1.166000,1.752000,283.519000,0.070800,0.317400,0.185200,0.334000,0.160000,-10.062000,0.006726,-0.007604,0.003037
1764073559321800270,2025-11-25 17:55:59.319,-1.159000,1.738000,283.523000,0.070000,0.318500,0.210200,0.320000,0.128000,-10.095000,0.001435,-0.010260,0.003966
1764073559349536437,2025-11-25 17:55:59.346,-1.158000,1.723000,283.526000,0.070900,0.322300,0.185200,0.267000,0.146000,-10.054000,-0.002000,-0.011244,0.001897
1764073559374997585,2025-11-25 17:55:59.372,-1.163000,1.706000,283.530000,0.073600,0.315400,0.208200,0.285000,0.123000,-10.066000,-0.006856,-0.011966,0.002316
1764073559399185622,2025-11-25 17:55:59.396,-1.173000,1.688000,283.533000,0.069100,0.321400,0.202500,0.305000,0.156000,-10.117000,-0.010428,-0.013083,0.002730
1764073559423342696,2025-11-25 17:55:59.420,-1.190000,1.670000,283.535000,0.071700,0.315400,0.189700,0.276000,0.167000,-10.082000,-0.014120,-0.013092,0.002276
1764073559448715344,2025-11-25 17:55:59.445,-1.212000,1.651000,283.540000,0.072700,0.317400,0.186400,0.308000,0.186000,-10.075000,-0.017200,-0.011805,0.002555
1764073559474955955,2025-11-25 17:55:59.471,-1.238000,1.634000,283.545000,0.071700,0.311600,0.208200,0.249000,0.189000,-10.098000,-0.019699,-0.011102,0.004461
1764073559502082566,2025-11-25 17:55:59.498,-1.267000,1.618000,283.549000,0.071700,0.314500,0.209200,0.285000,0.217000,-10.113000,-0.020807,-0.011423,0.003714
1764073559523767844,2025-11-25 17:55:59.521,-1.300000,1.602000,283.555000,0.071800,0.315500,0.209200,0.268000,0.247000,-10.122000,-0.023606,-0.009026,0.004015
1764073559549999122,2025-11-25 17:55:59.547,-1.334000,1.590000,283.560000,0.070700,0.314400,0.184200,0.240000,0.244000,-10.162000,-0.023720,-0.007954,0.004682
1764073559574070048,2025-11-25 17:55:59.570,-1.367000,1.579000,283.566000,0.068900,0.315500,0.187300,0.279000,0.273000,-10.101000,-0.022393,-0.005534,0.003681
1764073559600059955,2025-11-25 17:55:59.597,-1.400000,1.571000,283.573000,0.073500,0.312400,0.187600,0.235000,0.271000,-10.136000,-0.020400,-0.004871,0.004070
1764073559624563122,2025-11-25 17:55:59.621,-1.431000,1.565000,283.580000,0.069900,0.316500,0.207000,0.249000,0.302000,-10.141000,-0.019650,-0.001763,0.004516
1764073559648834122,2025-11-25 17:55:59.645,-1.461000,1.561000,283.585000,0.072700,0.315400,0.197300,0.270000,0.351000,-10.178000,-0.018426,-0.000425,0.003788
1764073559675664029,2025-11-25 17:55:59.672,-1.486000,1.561000,283.590000,0.073600,0.313500,0.205000,0.270000,0.316000,-10.138000,-0.014357,-0.000155,0.003632
1764073559699712177,2025-11-25 17:55:59.697,-1.507000,1.562000,283.596000,0.073700,0.317400,0.210400,0.281000,0.312000,-10.150000,-0.010326,0.000394,0.003625
1764073559723502566,2025-11-25 17:55:59.720,-1.522000,1.566000,283.601000,0.072600,0.313500,0.206000,0.268000,0.334000,-10.166000,-0.007594,0.003102,0.004105
1764073559748746140,2025-11-25 17:55:59.745,-1.534000,1.572000,283.604000,0.072600,0.314500,0.202800,0.295000,0.314000,-10.145000,-0.004652,0.005169,0.001552
1764073559775322696,2025-11-25 17:55:59.772,-1.539000,1.579000,283.608000,0.070900,0.318500,0.209200,0.301000,0.322000,-10.144000,-0.000693,0.004925,0.003381
1764073559799513270,2025-11-25 17:55:59.796,-1.540000,1.587000,283.612000,0.071700,0.312500,0.210300,0.235000,0.320000,-10.138000,0.001779,0.005739,0.003325
1764073559823581992,2025-11-25 17:55:59.820,-1.536000,1.596000,283.614000,0.071700,0.313400,0.187500,0.282000,0.311000,-10.115000,0.004405,0.006192,0.000391
1764073559849488436,2025-11-25 17:55:59.846,-1.528000,1.605000,283.615000,0.071700,0.315400,0.187500,0.276000,0.307000,-10.158000,0.007606,0.007612,0.003282
1764073559875784159,2025-11-25 17:55:59.873,-1.516000,1.617000,283.616000,0.072700,0.314500,0.207100,0.285000,0.295000,-10.148000,0.008720,0.007602,0.001650
1764073559901477214,2025-11-25 17:55:59.898,-1.502000,1.628000,283.619000,0.072600,0.312400,0.185400,0.321000,0.272000,-10.120000,0.011689,0.008126,0.001584
1764073559926953862,2025-11-25 17:55:59.924,-1.485000,1.640000,283.621000,0.072700,0.316400,0.207100,0.308000,0.285000,-10.104000,0.012008,0.008080,0.000911
1764073559950191214,2025-11-25 17:55:59.947,-1.465000,1.651000,283.624000,0.073600,0.315400,0.207100,0.331000,0.246000,-10.152000,0.013836,0.006527,0.000163
1764073559975212010,2025-11-25 17:55:59.972,-1.445000,1.662000,283.626000,0.072600,0.313400,0.184300,0.313000,0.243000,-10.130000,0.012812,0.006850,0.000398
1764073559997840307,2025-11-25 17:55:59.994,-1.424000,1.673000,283.628000,0.072700,0.317300,0.182100,0.304000,0.231000,-10.164000,0.013369,0.007049,0.001727
1764073560064479177,2025-11-25 17:56:00.062,-1.385000,1.689000,283.629000,0.071900,0.322400,0.207000,0.309000,0.226000,-10.074000,0.011853,0.004784,0.001388
1764073560073863473,2025-11-25 17:56:00.071,-1.367000,1.695000,283.631000,0.072700,0.317400,0.206000,0.306000,0.182000,-10.100000,0.010729,0.003212,0.002249
1764073560098990714,2025-11-25 17:56:00.096,-1.350000,1.699000,283.633000,0.070900,0.317500,0.204800,0.342000,0.196000,-10.112000,0.008658,0.000007,0.000948
1764073560122631103,2025-11-25 17:56:00.120,-1.336000,1.702000,283.634000,0.071800,0.316500,0.207100,0.289000,0.186000,-10.078000,0.007076,0.001302,0.001583
1764073560150115473,2025-11-25 17:56:00.146,-1.324000,1.703000,283.636000,0.073600,0.315500,0.210400,0.326000,0.175000,-10.092000,0.005177,-0.001302,0.001512
1764073560174599084,2025-11-25 17:56:00.171,-1.317000,1.702000,283.638000,0.070800,0.317400,0.186300,0.286000,0.200000,-10.104000,0.002903,-0.001006,0.001668
1764073560198436788,2025-11-25 17:56:00.195,-1.312000,1.701000,283.641000,0.071700,0.312500,0.203800,0.313000,0.210000,-10.087000,-0.000668,-0.001963,0.001101
1764073560223740288,2025-11-25 17:56:00.220,-1.311000,1.698000,283.643000,0.072800,0.323300,0.203800,0.312000,0.205000,-10.047000,-0.001847,-0.002780,0.001833
1764073560250359973,2025-11-25 17:56:00.247,-1.314000,1.694000,283.645000,0.071100,0.327300,0.204700,0.277000,0.207000,-10.080000,-0.004183,-0.003175,0.002024
1764073560275601325,2025-11-25 17:56:00.272,-1.319000,1.689000,283.645000,0.073700,0.319400,0.202800,0.308000,0.171000,-10.087000,-0.004263,-0.002938,0.001157
1764073560299323825,2025-11-25 17:56:00.296,-1.327000,1.684000,283.647000,0.070800,0.316400,0.183100,0.286000,0.224000,-10.066000,-0.008119,-0.003300,0.001592
1764073560322677158,2025-11-25 17:56:00.320,-1.338000,1.680000,283.650000,0.073600,0.314500,0.206100,0.296000,0.215000,-10.089000,-0.008741,-0.002904,0.002956
1764073560350074269,2025-11-25 17:56:00.346,-1.350000,1.675000,283.653000,0.070700,0.313500,0.184200,0.296000,0.217000,-10.073000,-0.010068,-0.003396,0.000671
1764073560375906380,2025-11-25 17:56:00.373,-1.364000,1.671000,283.657000,0.070800,0.315500,0.204800,0.266000,0.232000,-10.113000,-0.010611,-0.002951,0.002144
1764073560399908603,2025-11-25 17:56:00.397,-1.378000,1.667000,283.662000,0.071800,0.315500,0.207100,0.313000,0.230000,-10.123000,-0.010293,-0.001169,0.002944
1764073560423072103,2025-11-25 17:56:00.420,-1.393000,1.665000,283.665000,0.072600,0.313400,0.188600,0.270000,0.249000,-10.116000,-0.010133,-0.001198,0.002807
1764073560449036158,2025-11-25 17:56:00.445,-1.407000,1.663000,283.670000,0.072800,0.320400,0.207100,0.298000,0.251000,-10.129000,-0.008532,-0.000919,0.002575
1764073560476394510,2025-11-25 17:56:00.474,-1.421000,1.661000,283.671000,0.072700,0.314500,0.209300,0.292000,0.264000,-10.138000,-0.007978,0.000812,0.003302
1764073560497783306,2025-11-25 17:56:00.495,-1.435000,1.662000,283.672000,0.070800,0.316400,0.187400,0.264000,0.277000,-10.122000,-0.007617,0.002460,0.001615
1764073560523570121,2025-11-25 17:56:00.520,-1.446000,1.663000,283.675000,0.072700,0.316400,0.204900,0.262000,0.280000,-10.102000,-0.005496,0.002732,0.001303
1764073560549352954,2025-11-25 17:56:00.546,-1.455000,1.664000,283.678000,0.071700,0.313500,0.210300,0.264000,0.309000,-10.138000,-0.004193,0.001721,0.002745
1764073560574830677,2025-11-25 17:56:00.571,-1.462000,1.669000,283.681000,0.072500,0.310500,0.191900,0.267000,0.314000,-10.119000,-0.001537,0.003761,0.001876
1764073560599265047,2025-11-25 17:56:00.596,-1.466000,1.675000,283.685000,0.071700,0.312500,0.207100,0.289000,0.265000,-10.128000,-0.000177,0.005981,0.002605
1764073560625093103,2025-11-25 17:56:00.622,-1.465000,1.683000,283.689000,0.072600,0.312500,0.209300,0.273000,0.305000,-10.150000,0.003658,0.005999,0.002479
1764073560649413343,2025-11-25 17:56:00.646,-1.463000,1.692000,283.691000,0.072600,0.313400,0.188600,0.284000,0.305000,-10.153000,0.004880,0.006135,0.001701
1764073560673605010,2025-11-25 17:56:00.670,-1.458000,1.700000,283.695000,0.073600,0.316400,0.209300,0.299000,0.275000,-10.143000,0.006328,0.006358,0.002142
1764073560698321491,2025-11-25 17:56:00.695,-1.448000,1.712000,283.697000,0.071900,0.324300,0.208100,0.293000,0.280000,-10.183000,0.010149,0.009009,0.002096
1764073560723096028,2025-11-25 17:56:00.720,-1.436000,1.722000,283.700000,0.072700,0.320300,0.185300,0.303000,0.275000,-10.135000,0.010016,0.008872,0.002073
1764073560749190954,2025-11-25 17:56:00.746,-1.420000,1.733000,283.701000,0.073600,0.317400,0.205000,0.311000,0.292000,-10.163000,0.012652,0.007432,0.001731
1764073560775077454,2025-11-25 17:56:00.772,-1.402000,1.744000,283.705000,0.072600,0.313400,0.183200,0.318000,0.263000,-10.165000,0.014423,0.006614,0.002876
1764073560799202843,2025-11-25 17:56:00.796,-1.383000,1.754000,283.707000,0.074600,0.319400,0.209300,0.312000,0.253000,-10.189000,0.014328,0.006615,0.002889
1764073560823188436,2025-11-25 17:56:00.820,-1.362000,1.763000,283.711000,0.071700,0.314500,0.206000,0.312000,0.255000,-10.154000,0.014209,0.006386,0.001803
1764073560849373343,2025-11-25 17:56:00.846,-1.342000,1.772000,283.714000,0.072600,0.314400,0.186500,0.361000,0.241000,-10.153000,0.014255,0.005417,0.002738
1764073560874718954,2025-11-25 17:56:00.871,-1.322000,1.778000,283.715000,0.071700,0.313500,0.207100,0.330000,0.239000,-10.126000,0.012591,0.004380,0.003305
1764073560898734343,2025-11-25 17:56:00.896,-1.303000,1.785000,283.717000,0.069000,0.316500,0.206900,0.331000,0.198000,-10.090000,0.011639,0.002305,0.000898
1764073560924403936,2025-11-25 17:56:00.921,-1.285000,1.788000,283.720000,0.071700,0.314500,0.201600,0.357000,0.178000,-10.154000,0.010271,-0.000102,0.002323
1764073560952321806,2025-11-25 17:56:00.950,-1.270000,1.789000,283.721000,0.072800,0.319400,0.206000,0.298000,0.202000,-10.152000,0.008523,-0.001033,0.001898
1764073560973572325,2025-11-25 17:56:00.970,-1.258000,1.786000,283.724000,0.071700,0.314500,0.207100,0.352000,0.181000,-10.134000,0.006317,-0.004096,0.002318
1764073560998270473,2025-11-25 17:56:00.995,-1.249000,1.779000,283.726000,0.072800,0.319400,0.207100,0.335000,0.175000,-10.136000,0.003669,-0.006848,0.003640
1764073561064907547,2025-11-25 17:56:01.062,-1.244000,1.758000,283.734000,0.069900,0.318400,0.202600,0.355000,0.196000,-10.088000,-0.004068,-0.010926,0.001965
1764073561074411676,2025-11-25 17:56:01.072,-1.248000,1.744000,283.736000,0.073600,0.318300,0.189700,0.320000,0.188000,-10.139000,-0.005249,-0.011461,0.001556
1764073561098347880,2025-11-25 17:56:01.095,-1.256000,1.726000,283.738000,0.071000,0.322400,0.205900,0.321000,0.196000,-10.124000,-0.008411,-0.013858,0.000279
1764073561124715436,2025-11-25 17:56:01.121,-1.268000,1.705000,283.741000,0.072800,0.319400,0.206000,0.329000,0.187000,-10.064000,-0.010956,-0.015125,0.001248
1764073561150342084,2025-11-25 17:56:01.148,-1.285000,1.684000,283.743000,0.072700,0.319300,0.183100,0.319000,0.210000,-10.071000,-0.012663,-0.016919,0.002284
1764073561174793436,2025-11-25 17:56:01.170,-1.304000,1.661000,283.745000,0.072700,0.317400,0.207100,0.298000,0.224000,-10.136000,-0.014720,-0.018359,0.002283
1764073561199697991,2025-11-25 17:56:01.197,-1.326000,1.637000,283.746000,0.072700,0.317400,0.209300,0.304000,0.217000,-10.073000,-0.017019,-0.017105,0.000794
1764073561223469510,2025-11-25 17:56:01.220,-1.349000,1.614000,283.749000,0.072700,0.318400,0.207100,0.342000,0.237000,-10.105000,-0.017193,-0.017545,0.002183
1764073561249876176,2025-11-25 17:56:01.246,-1.373000,1.588000,283.752000,0.071800,0.316500,0.208100,0.271000,0.257000,-10.085000,-0.018026,-0.017088,0.001045
1764073561277450195,2025-11-25 17:56:01.274,-1.397000,1.566000,283.753000,0.072800,0.319400,0.204900,0.251000,0.278000,-10.111000,-0.015670,-0.016434,0.001490
1764073561298415343,2025-11-25 17:56:01.295,-1.421000,1.544000,283.757000,0.074600,0.317400,0.203900,0.279000,0.258000,-10.130000,-0.015527,-0.012512,0.002980
1764073561322887121,2025-11-25 17:56:01.320,-1.443000,1.525000,283.762000,0.077300,0.315300,0.185600,0.266000,0.273000,-10.111000,-0.013841,-0.011263,0.002401
1764073561349629547,2025-11-25 17:56:01.346,-1.463000,1.510000,283.765000,0.071700,0.314500,0.206000,0.256000,0.288000,-10.114000,-0.013017,-0.009771,0.001422
1764073561375509843,2025-11-25 17:56:01.372,-1.480000,1.498000,283.767000,0.073600,0.314500,0.208200,0.238000,0.278000,-10.115000,-0.010143,-0.005204,0.001820
1764073561398927472,2025-11-25 17:56:01.396,-1.494000,1.491000,283.768000,0.072700,0.314500,0.204900,0.225000,0.299000,-10.134000,-0.007463,-0.003457,0.001566
1764073561421800806,2025-11-25 17:56:01.419,-1.505000,1.487000,283.771000,0.075500,0.317400,0.208300,0.250000,0.311000,-10.098000,-0.005221,-0.000426,0.001384
1764073561447899880,2025-11-25 17:56:01.445,-1.513000,1.486000,283.772000,0.074600,0.316400,0.207200,0.232000,0.303000,-10.109000,-0.002468,0.001909,0.000880
1764073561476005158,2025-11-25 17:56:01.473,-1.516000,1.491000,283.774000,0.072800,0.319400,0.208200,0.221000,0.276000,-10.086000,0.000025,0.005049,0.001159
1764073561497951287,2025-11-25 17:56:01.495,-1.516000,1.498000,283.777000,0.073600,0.314500,0.211500,0.262000,0.284000,-10.079000,0.002667,0.008098,0.001020
1764073561522882213,2025-11-25 17:56:01.520,-1.512000,1.510000,283.778000,0.075500,0.318400,0.210500,0.223000,0.307000,-10.112000,0.005281,0.011953,0.001142
1764073561549339232,2025-11-25 17:56:01.546,-1.505000,1.523000,283.780000,0.071700,0.314500,0.209200,0.282000,0.265000,-10.128000,0.005639,0.012617,0.002204
1764073561573354491,2025-11-25 17:56:01.570,-1.496000,1.542000,283.779000,0.072600,0.314400,0.189700,0.259000,0.278000,-10.110000,0.008294,0.013167,0.000263
1764073561597898954,2025-11-25 17:56:01.595,-1.483000,1.563000,283.779000,0.073600,0.316400,0.206100,0.257000,0.273000,-10.107000,0.009306,0.015916,0.000502
1764073561624644306,2025-11-25 17:56:01.622,-1.468000,1.586000,283.780000,0.074500,0.315400,0.209400,0.306000,0.283000,-10.103000,0.010711,0.016268,0.001606
1764073561646013102,2025-11-25 17:56:01.644,-1.453000,1.610000,283.779000,0.072700,0.315500,0.206000,0.286000,0.271000,-10.085000,0.010872,0.018456,-0.000298
1764073561675791620,2025-11-25 17:56:01.672,-1.437000,1.635000,283.779000,0.073600,0.315400,0.209300,0.320000,0.226000,-10.110000,0.010801,0.017031,0.000637
1764073561699064195,2025-11-25 17:56:01.696,-1.420000,1.659000,283.777000,0.073700,0.320400,0.210400,0.308000,0.240000,-10.084000,0.012243,0.016368,0.000833
1764073561724192028,2025-11-25 17:56:01.721,-1.404000,1.685000,283.776000,0.071700,0.312500,0.210300,0.289000,0.235000,-10.091000,0.011135,0.017547,0.000051
1764073561749433472,2025-11-25 17:56:01.746,-1.388000,1.709000,283.777000,0.071800,0.318400,0.184200,0.323000,0.234000,-10.105000,0.009274,0.015359,0.000337
1764073561775209028,2025-11-25 17:56:01.772,-1.372000,1.731000,283.777000,0.072700,0.319300,0.181000,0.306000,0.221000,-10.099000,0.009844,0.015424,0.000949
1764073561799062194,2025-11-25 17:56:01.796,-1.359000,1.751000,283.778000,0.071800,0.316500,0.208100,0.345000,0.223000,-10.066000,0.008222,0.012644,0.001428
1764073561822612176,2025-11-25 17:56:01.820,-1.347000,1.769000,283.780000,0.070700,0.311600,0.204900,0.335000,0.227000,-10.123000,0.007334,0.011862,0.001530
1764073561849191602,2025-11-25 17:56:01.846,-1.337000,1.786000,283.779000,0.070800,0.316500,0.207000,0.314000,0.216000,-10.104000,0.006312,0.010159,0.001695
1764073561874207324,2025-11-25 17:56:01.871,-1.328000,1.799000,283.779000,0.072600,0.316400,0.186400,0.355000,0.205000,-10.142000,0.004079,0.007858,0.000921
1764073561897812954,2025-11-25 17:56:01.895,-1.322000,1.811000,283.780000,0.072700,0.315500,0.208200,0.324000,0.220000,-10.077000,0.002610,0.006387,0.000794
1764073561923962009,2025-11-25 17:56:01.921,-1.317000,1.819000,283.784000,0.070700,0.313500,0.187400,0.334000,0.205000,-10.136000,0.001932,0.002608,0.002706
1764073561949882491,2025-11-25 17:56:01.947,-1.315000,1.823000,283.788000,0.072700,0.316400,0.207100,0.349000,0.236000,-10.131000,0.000562,0.003096,0.001694
1764073561975128750,2025-11-25 17:56:01.972,-1.314000,1.825000,283.791000,0.071800,0.315500,0.208100,0.338000,0.225000,-10.129000,-0.000708,0.000383,0.003553
1764073561997721139,2025-11-25 17:56:01.995,-1.316000,1.825000,283.794000,0.073600,0.315400,0.208200,0.358000,0.213000,-10.117000,-0.001874,-0.001534,0.002222
1764073562063986028,2025-11-25 17:56:02.061,-1.322000,1.816000,283.799000,0.070900,0.317500,0.204800,0.339000,0.234000,-10.188000,-0.003526,-0.005084,0.002397
1764073562073238231,2025-11-25 17:56:02.071,-1.327000,1.807000,283.801000,0.071700,0.313500,0.188600,0.326000,0.206000,-10.156000,-0.004778,-0.006263,0.001875
1764073562098497657,2025-11-25 17:56:02.096,-1.332000,1.797000,283.803000,0.072600,0.313500,0.208200,0.292000,0.223000,-10.139000,-0.004881,-0.007791,0.002069
1764073562123974639,2025-11-25 17:56:02.120,-1.339000,1.784000,283.805000,0.074400,0.313400,0.182200,0.344000,0.241000,-10.144000,-0.004553,-0.008222,0.001124
1764073562149197676,2025-11-25 17:56:02.146,-1.346000,1.770000,283.806000,0.071700,0.315500,0.203800,0.303000,0.236000,-10.153000,-0.004978,-0.010452,0.002318
1764073562173142287,2025-11-25 17:56:02.170,-1.352000,1.757000,283.804000,0.070900,0.320400,0.204800,0.312000,0.250000,-10.163000,-0.004961,-0.009993,0.000818
1764073562197044324,2025-11-25 17:56:02.194,-1.359000,1.742000,283.806000,0.072800,0.319400,0.202700,0.321000,0.262000,-10.131000,-0.003657,-0.011257,-0.000102
1764073562223350231,2025-11-25 17:56:02.220,-1.367000,1.726000,283.807000,0.074600,0.318400,0.199600,0.275000,0.243000,-10.116000,-0.005360,-0.010581,-0.000161
1764073562248205472,2025-11-25 17:56:02.245,-1.373000,1.710000,283.808000,0.074500,0.315400,0.183300,0.316000,0.265000,-10.132000,-0.003735,-0.010815,0.000774
1764073562273307898,2025-11-25 17:56:02.270,-1.380000,1.694000,283.811000,0.071800,0.319400,0.204900,0.264000,0.266000,-10.131000,-0.003081,-0.010496,-0.000436
1764073562296927102,2025-11-25 17:56:02.294,-1.385000,1.679000,283.813000,0.071800,0.316400,0.202700,0.276000,0.238000,-10.088000,-0.002603,-0.010228,0.000878
1764073562322090398,2025-11-25 17:56:02.319,-1.388000,1.663000,283.815000,0.072700,0.315500,0.206000,0.288000,0.233000,-10.152000,-0.001277,-0.009947,0.000527
1764073562348398842,2025-11-25 17:56:02.345,-1.392000,1.648000,283.816000,0.073600,0.315400,0.186500,0.254000,0.257000,-10.136000,-0.002256,-0.009788,-0.000518
1764073562374764435,2025-11-25 17:56:02.371,-1.395000,1.635000,283.817000,0.073600,0.313500,0.208300,0.276000,0.233000,-10.088000,-0.001970,-0.008464,0.002092
1764073562398516879,2025-11-25 17:56:02.396,-1.399000,1.620000,283.818000,0.072800,0.319400,0.210300,0.264000,0.252000,-10.123000,-0.001327,-0.008995,0.000270
1764073562422603046,2025-11-25 17:56:02.420,-1.399000,1.610000,283.820000,0.072700,0.318400,0.208200,0.277000,0.255000,-10.142000,-0.000014,-0.006448,0.000128
1764073562447674564,2025-11-25 17:56:02.445,-1.400000,1.602000,283.824000,0.074500,0.315400,0.203900,0.313000,0.229000,-10.082000,-0.000879,-0.005533,0.002023
1764073562475689713,2025-11-25 17:56:02.472,-1.400000,1.595000,283.825000,0.073600,0.316300,0.182100,0.248000,0.263000,-10.121000,0.000583,-0.004428,0.002211
1764073562497814731,2025-11-25 17:56:02.495,-1.400000,1.589000,283.828000,0.073700,0.319400,0.209300,0.272000,0.245000,-10.120000,0.000989,-0.003564,0.001604
1764073562523518861,2025-11-25 17:56:02.520,-1.400000,1.585000,283.830000,0.075400,0.316300,0.184400,0.294000,0.248000,-10.128000,-0.000436,-0.002098,0.001324
1764073562549024305,2025-11-25 17:56:02.545,-1.400000,1.584000,283.833000,0.073600,0.313500,0.202800,0.274000,0.232000,-10.138000,-0.000567,0.000519,0.002385
1764073562572501250,2025-11-25 17:56:02.569,-1.400000,1.583000,283.836000,0.073600,0.314500,0.209300,0.285000,0.238000,-10.085000,-0.000807,0.000695,0.001816
1764073562597666509,2025-11-25 17:56:02.594,-1.400000,1.585000,283.839000,0.073600,0.313500,0.206100,0.248000,0.242000,-10.117000,0.000525,0.003159,0.002083
1764073562624424064,2025-11-25 17:56:02.622,-1.401000,1.588000,283.843000,0.074600,0.318400,0.206100,0.243000,0.242000,-10.131000,-0.001050,0.003873,0.003549
1764073562648448750,2025-11-25 17:56:02.645,-1.401000,1.593000,283.848000,0.073700,0.319400,0.209300,0.282000,0.220000,-10.117000,-0.001329,0.005093,0.002846
1764073562675299472,2025-11-25 17:56:02.671,-1.401000,1.602000,283.852000,0.074600,0.317400,0.207200,0.284000,0.236000,-10.096000,-0.001029,0.005731,0.001627
1764073562696671083,2025-11-25 17:56:02.694,-1.402000,1.611000,283.855000,0.075500,0.317400,0.211600,0.311000,0.224000,-10.148000,-0.000915,0.006255,0.002870
1764073562723802583,2025-11-25 17:56:02.721,-1.404000,1.621000,283.857000,0.073600,0.316400,0.206100,0.258000,0.250000,-10.132000,-0.001666,0.007635,0.000523
1764073562748934657,2025-11-25 17:56:02.745,-1.407000,1.632000,283.860000,0.072600,0.313400,0.186500,0.278000,0.238000,-10.078000,-0.002205,0.008463,0.000324
1764073562775462398,2025-11-25 17:56:02.772,-1.410000,1.642000,283.862000,0.071700,0.314400,0.186400,0.328000,0.230000,-10.109000,-0.002049,0.008847,0.002062
1764073562799571712,2025-11-25 17:56:02.797,-1.413000,1.657000,283.862000,0.075400,0.312400,0.188800,0.269000,0.239000,-10.094000,-0.002862,0.010424,0.001191
1764073562823221101,2025-11-25 17:56:02.820,-1.417000,1.672000,283.864000,0.073700,0.318400,0.207100,0.325000,0.248000,-10.142000,-0.002249,0.009769,-0.000068
1764073562848774157,2025-11-25 17:56:02.845,-1.421000,1.687000,283.863000,0.074500,0.317300,0.185400,0.303000,0.240000,-10.103000,-0.002171,0.009376,0.000842
1764073562875273398,2025-11-25 17:56:02.872,-1.424000,1.700000,283.862000,0.075400,0.313500,0.209400,0.264000,0.274000,-10.090000,-0.001062,0.008465,0.000411
1764073562899596064,2025-11-25 17:56:02.897,-1.427000,1.711000,283.864000,0.070700,0.311500,0.187500,0.341000,0.244000,-10.111000,-0.001793,0.007508,0.000268
1764073562924089749,2025-11-25 17:56:02.921,-1.430000,1.723000,283.863000,0.072600,0.313500,0.207100,0.314000,0.247000,-10.083000,-0.000322,0.006856,0.000402
1764073562951017935,2025-11-25 17:56:02.948,-1.431000,1.733000,283.863000,0.072700,0.314500,0.209300,0.332000,0.256000,-10.132000,-0.001846,0.006511,0.000523
1764073562975766990,2025-11-25 17:56:02.971,-1.434000,1.741000,283.862000,0.073600,0.313500,0.211500,0.338000,0.256000,-10.113000,-0.001323,0.005475,0.000790
1764073562998733175,2025-11-25 17:56:02.996,-1.435000,1.749000,283.863000,0.074600,0.319300,0.184300,0.326000,0.275000,-10.130000,-0.001150,0.003475,0.001204
1764073563062561953,2025-11-25 17:56:03.060,-1.438000,1.756000,283.867000,0.071700,0.313500,0.206000,0.304000,0.279000,-10.126000,0.000052,0.000571,0.000366
1764073563071702527,2025-11-25 17:56:03.069,-1.437000,1.757000,283.868000,0.070800,0.313500,0.208100,0.338000,0.239000,-10.144000,-0.000455,-0.001159,0.001833
1764073563097667749,2025-11-25 17:56:03.095,-1.437000,1.754000,283.869000,0.072600,0.311500,0.209300,0.328000,0.247000,-10.131000,0.000058,-0.002221,0.000549
1764073563122487027,2025-11-25 17:56:03.120,-1.436000,1.750000,283.869000,0.073500,0.312400,0.187600,0.312000,0.264000,-10.092000,0.000040,-0.003736,-0.000112
1764073563149486323,2025-11-25 17:56:03.146,-1.435000,1.744000,283.870000,0.072700,0.315500,0.208200,0.333000,0.216000,-10.121000,0.001216,-0.005053,0.001253
1764073563174349620,2025-11-25 17:56:03.171,-1.433000,1.735000,283.872000,0.072700,0.314500,0.203900,0.324000,0.274000,-10.123000,0.001747,-0.007365,0.002454
1764073563198113138,2025-11-25 17:56:03.195,-1.431000,1.727000,283.875000,0.071700,0.312500,0.208200,0.318000,0.258000,-10.092000,0.000693,-0.006540,0.001303
1764073563223339805,2025-11-25 17:56:03.220,-1.430000,1.716000,283.877000,0.074500,0.312500,0.209400,0.298000,0.254000,-10.134000,0.001602,-0.007393,0.001878
1764073563248474453,2025-11-25 17:56:03.245,-1.426000,1.705000,283.880000,0.074600,0.316400,0.205000,0.271000,0.249000,-10.116000,0.001038,-0.008827,0.002692
1764073563275325323,2025-11-25 17:56:03.272,-1.424000,1.693000,283.883000,0.071800,0.320300,0.189600,0.338000,0.232000,-10.134000,0.002170,-0.007506,0.001939
1764073563299051249,2025-11-25 17:56:03.296,-1.420000,1.681000,283.888000,0.073600,0.313500,0.208300,0.289000,0.265000,-10.146000,0.001863,-0.008146,0.002809
1764073563322657823,2025-11-25 17:56:03.320,-1.418000,1.670000,283.891000,0.071700,0.314500,0.206000,0.269000,0.246000,-10.159000,0.001857,-0.008021,0.002192
1764073563349297101,2025-11-25 17:56:03.346,-1.415000,1.659000,283.897000,0.073600,0.316400,0.186500,0.284000,0.236000,-10.143000,0.001267,-0.006056,0.001636
1764073563374486712,2025-11-25 17:56:03.371,-1.411000,1.650000,283.901000,0.072600,0.313500,0.206000,0.281000,0.237000,-10.102000,0.001912,-0.004785,0.001855
1764073563396814619,2025-11-25 17:56:03.394,-1.408000,1.643000,283.904000,0.074600,0.316400,0.206100,0.275000,0.248000,-10.167000,0.002711,-0.003871,0.001784
1764073563421906193,2025-11-25 17:56:03.419,-1.404000,1.637000,283.908000,0.074600,0.320300,0.200600,0.291000,0.265000,-10.148000,0.001065,-0.000578,0.002026
1764073563447524916,2025-11-25 17:56:03.444,-1.402000,1.635000,283.912000,0.072800,0.321400,0.204900,0.257000,0.249000,-10.109000,0.001974,-0.001473,0.002254
1764073563476326212,2025-11-25 17:56:03.473,-1.401000,1.635000,283.915000,0.072600,0.315400,0.187500,0.286000,0.250000,-10.108000,0.001641,0.002561,0.002956
1764073563497222193,2025-11-25 17:56:03.494,-1.398000,1.636000,283.916000,0.072800,0.321300,0.186400,0.243000,0.228000,-10.105000,0.001332,0.001535,0.001557
1764073563522808064,2025-11-25 17:56:03.520,-1.396000,1.640000,283.917000,0.074500,0.314400,0.186500,0.270000,0.254000,-10.132000,0.000709,0.003692,0.002422
1764073563548693397,2025-11-25 17:56:03.545,-1.393000,1.646000,283.918000,0.071600,0.312500,0.187500,0.273000,0.258000,-10.129000,0.001571,0.006053,0.001862
1764073563574214675,2025-11-25 17:56:03.571,-1.392000,1.655000,283.921000,0.073500,0.313400,0.188700,0.224000,0.266000,-10.108000,0.001885,0.006915,0.000381
1764073563598891934,2025-11-25 17:56:03.596,-1.389000,1.665000,283.923000,0.071800,0.320400,0.203800,0.296000,0.232000,-10.118000,0.002228,0.007200,0.002045
1764073563622294804,2025-11-25 17:56:03.619,-1.386000,1.676000,283.924000,0.074500,0.314400,0.205000,0.249000,0.255000,-10.134000,0.003836,0.008622,0.001776
1764073563647461879,2025-11-25 17:56:03.644,-1.381000,1.689000,283.925000,0.075500,0.317400,0.209400,0.278000,0.269000,-10.143000,0.003660,0.009336,0.000230
1764073563674417267,2025-11-25 17:56:03.671,-1.377000,1.702000,283.926000,0.075500,0.316400,0.204000,0.303000,0.227000,-10.131000,0.003252,0.009576,0.000304
1764073563698163267,2025-11-25 17:56:03.695,-1.371000,1.715000,283.928000,0.070800,0.317400,0.184200,0.280000,0.266000,-10.151000,0.005325,0.008709,0.001798
1764073563722417471,2025-11-25 17:56:03.719,-1.364000,1.728000,283.929000,0.072700,0.314500,0.206000,0.312000,0.278000,-10.142000,0.005899,0.008421,0.002547
1764073563746300786,2025-11-25 17:56:03.743,-1.358000,1.740000,283.932000,0.072700,0.317400,0.186400,0.306000,0.264000,-10.115000,0.004796,0.009113,0.002154
1764073563775068397,2025-11-25 17:56:03.772,-1.349000,1.752000,283.934000,0.071700,0.313400,0.186400,0.320000,0.267000,-10.165000,0.007277,0.006864,0.003147
1764073563799071786,2025-11-25 17:56:03.796,-1.340000,1.761000,283.937000,0.073600,0.318300,0.189700,0.320000,0.270000,-10.142000,0.006750,0.005126,0.002266
1764073563822657675,2025-11-25 17:56:03.820,-1.330000,1.768000,283.938000,0.071800,0.318400,0.188500,0.328000,0.258000,-10.133000,0.008663,0.004534,0.002074
1764073563848709545,2025-11-25 17:56:03.845,-1.320000,1.774000,283.941000,0.072800,0.325200,0.187500,0.332000,0.251000,-10.128000,0.008317,0.002162,0.003227
1764073563874263767,2025-11-25 17:56:03.871,-1.310000,1.775000,283.944000,0.072700,0.317400,0.189700,0.318000,0.259000,-10.119000,0.007706,-0.000799,0.002823
1764073563898028786,2025-11-25 17:56:03.895,-1.299000,1.774000,283.948000,0.072700,0.314500,0.208200,0.339000,0.228000,-10.105000,0.006506,-0.003323,0.002685
1764073563922345489,2025-11-25 17:56:03.919,-1.289000,1.771000,283.953000,0.072700,0.314500,0.209300,0.355000,0.224000,-10.123000,0.004968,-0.002855,0.002833
1764073563950515878,2025-11-25 17:56:03.947,-1.281000,1.765000,283.957000,0.073600,0.314500,0.208300,0.318000,0.219000,-10.084000,0.005368,-0.006497,0.003369
1764073563974277175,2025-11-25 17:56:03.971,-1.276000,1.756000,283.962000,0.075400,0.314400,0.189900,0.320000,0.187000,-10.088000,0.002211,-0.008641,0.003171
1764073563998009656,2025-11-25 17:56:03.995,-1.271000,1.743000,283.967000,0.073600,0.315400,0.188700,0.337000,0.168000,-10.078000,0.000631,-0.009320,0.003838
1764073564067238360,2025-11-25 17:56:04.065,-1.273000,1.711000,283.977000,0.072600,0.315400,0.186500,0.327000,0.184000,-10.079000,-0.004092,-0.013322,0.001796
1764073564077314304,2025-11-25 17:56:04.075,-1.281000,1.694000,283.979000,0.072700,0.317400,0.206000,0.289000,0.175000,-10.092000,-0.007511,-0.013523,0.003315
1764073564095961675,2025-11-25 17:56:04.093,-1.292000,1.675000,283.982000,0.073600,0.316400,0.184300,0.272000,0.176000,-10.097000,-0.010294,-0.013799,0.002132
1764073564124235193,2025-11-25 17:56:04.121,-1.307000,1.655000,283.985000,0.072700,0.318400,0.208200,0.314000,0.188000,-10.092000,-0.013268,-0.013836,0.000617
1764073564149451638,2025-11-25 17:56:04.146,-1.327000,1.635000,283.987000,0.073700,0.318400,0.209300,0.257000,0.166000,-10.087000,-0.016429,-0.014147,0.002212
1764073564173312471,2025-11-25 17:56:04.170,-1.350000,1.616000,283.991000,0.075400,0.314400,0.206200,0.315000,0.192000,-10.084000,-0.018897,-0.012362,0.002461
1764073564198622508,2025-11-25 17:56:04.196,-1.376000,1.598000,283.994000,0.076400,0.316400,0.209500,0.281000,0.201000,-10.082000,-0.019149,-0.012746,0.002086
1764073564222173119,2025-11-25 17:56:04.219,-1.405000,1.582000,283.998000,0.073600,0.315400,0.206100,0.258000,0.228000,-10.096000,-0.020127,-0.010650,0.001091
1764073564250147434,2025-11-25 17:56:04.247,-1.435000,1.568000,284.002000,0.074500,0.317300,0.189800,0.275000,0.235000,-10.142000,-0.021634,-0.007559,0.002133
1764073564276753712,2025-11-25 17:56:04.274,-1.466000,1.558000,284.003000,0.077300,0.314400,0.206300,0.229000,0.245000,-10.113000,-0.021725,-0.005826,0.001267
1764073564298322415,2025-11-25 17:56:04.296,-1.495000,1.550000,284.007000,0.075500,0.318400,0.208300,0.287000,0.256000,-10.143000,-0.019129,-0.003471,0.002394
1764073564322366452,2025-11-25 17:56:04.320,-1.522000,1.545000,284.009000,0.074500,0.315400,0.205000,0.252000,0.307000,-10.156000,-0.017328,-0.001724,0.002351
1764073564350349100,2025-11-25 17:56:04.347,-1.547000,1.544000,284.011000,0.076300,0.311400,0.188900,0.259000,0.317000,-10.141000,-0.015526,0.000321,0.001021
1764073564374982897,2025-11-25 17:56:04.372,-1.567000,1.546000,284.015000,0.075400,0.311500,0.206200,0.294000,0.346000,-10.156000,-0.010715,0.002752,0.002268
1764073564398880563,2025-11-25 17:56:04.396,-1.582000,1.551000,284.017000,0.074600,0.318300,0.189800,0.261000,0.357000,-10.174000,-0.006945,0.003937,0.001853
1764073564423365267,2025-11-25 17:56:04.420,-1.591000,1.560000,284.018000,0.075400,0.313500,0.208400,0.299000,0.337000,-10.180000,-0.002684,0.006277,0.001874
1764073564446386989,2025-11-25 17:56:04.444,-1.594000,1.571000,284.019000,0.074400,0.310500,0.206200,0.278000,0.347000,-10.152000,0.001350,0.008079,0.001269
1764073564477144656,2025-11-25 17:56:04.474,-1.590000,1.584000,284.021000,0.074500,0.314500,0.208300,0.245000,0.353000,-10.190000,0.006120,0.010278,0.001160
1764073564498173156,2025-11-25 17:56:04.495,-1.579000,1.599000,284.023000,0.075500,0.315400,0.204000,0.307000,0.350000,-10.178000,0.010769,0.010342,0.000406
1764073564523167989,2025-11-25 17:56:04.520,-1.562000,1.616000,284.025000,0.072700,0.317400,0.207100,0.271000,0.319000,-10.132000,0.014667,0.012293,0.001344
1764073564548257026,2025-11-25 17:56:04.545,-1.539000,1.633000,284.027000,0.075500,0.318400,0.208300,0.301000,0.310000,-10.146000,0.018041,0.010064,0.001774
1764073564573724785,2025-11-25 17:56:04.571,-1.512000,1.650000,284.028000,0.073800,0.324200,0.188600,0.308000,0.326000,-10.131000,0.019918,0.011499,0.000547
1764073564601788767,2025-11-25 17:56:04.599,-1.481000,1.667000,284.028000,0.074500,0.313500,0.207200,0.281000,0.291000,-10.140000,0.023106,0.010968,0.001710
1764073564624054804,2025-11-25 17:56:04.620,-1.447000,1.684000,284.031000,0.074700,0.321300,0.206100,0.332000,0.270000,-10.143000,0.024830,0.010544,0.001764
1764073564649189063,2025-11-25 17:56:04.646,-1.413000,1.698000,284.032000,0.074500,0.315400,0.207200,0.282000,0.255000,-10.116000,0.024682,0.010431,0.001341
1764073564676934378,2025-11-25 17:56:04.674,-1.377000,1.712000,284.035000,0.074600,0.317400,0.207200,0.320000,0.237000,-10.124000,0.023762,0.009772,0.000579
1764073564698439804,2025-11-25 17:56:04.696,-1.342000,1.724000,284.037000,0.073600,0.316400,0.207200,0.344000,0.196000,-10.117000,0.024652,0.008211,0.002237
1764073564723142156,2025-11-25 17:56:04.720,-1.308000,1.735000,284.038000,0.074400,0.311400,0.186600,0.315000,0.223000,-10.091000,0.022782,0.005779,0.002962
1764073564748714989,2025-11-25 17:56:04.746,-1.277000,1.745000,284.040000,0.071600,0.312500,0.183200,0.340000,0.187000,-10.084000,0.020672,0.005269,0.001058
1764073564775764100,2025-11-25 17:56:04.771,-1.249000,1.751000,284.043000,0.074400,0.312400,0.181100,0.312000,0.197000,-10.086000,0.017659,0.004251,0.003619
1764073564798091693,2025-11-25 17:56:04.795,-1.224000,1.757000,284.047000,0.074500,0.315400,0.206100,0.319000,0.180000,-10.070000,0.014075,0.003133,0.002634
1764073564824000600,2025-11-25 17:56:04.821,-1.205000,1.759000,284.052000,0.073600,0.316400,0.207200,0.315000,0.156000,-10.076000,0.011428,0.001507,0.001842
1764073564849135341,2025-11-25 17:56:04.846,-1.190000,1.761000,284.055000,0.074500,0.315400,0.204000,0.297000,0.157000,-10.094000,0.008246,0.001043,0.002320
1764073564873564748,2025-11-25 17:56:04.870,-1.182000,1.761000,284.059000,0.074500,0.316400,0.201800,0.314000,0.146000,-10.066000,0.002836,0.000923,0.001421
1764073564898254322,2025-11-25 17:56:04.895,-1.178000,1.758000,284.062000,0.072700,0.318400,0.206000,0.285000,0.152000,-10.098000,-0.000858,-0.001344,0.002203
1764073564924520359,2025-11-25 17:56:04.921,-1.179000,1.756000,284.068000,0.072600,0.314400,0.184300,0.287000,0.177000,-10.126000,-0.003503,-0.000677,0.003802
1764073564952653563,2025-11-25 17:56:04.950,-1.186000,1.752000,284.072000,0.074500,0.315400,0.209400,0.346000,0.159000,-10.128000,-0.008295,-0.001705,0.002603
1764073564973002359,2025-11-25 17:56:04.970,-1.199000,1.747000,284.076000,0.072700,0.315500,0.208200,0.284000,0.185000,-10.093000,-0.011160,-0.004758,0.001818
1764073564998259544,2025-11-25 17:56:04.995,-1.216000,1.741000,284.079000,0.073600,0.317400,0.187600,0.296000,0.167000,-10.062000,-0.014108,-0.003178,0.002622
1764073565065628600,2025-11-25 17:56:05.063,-1.263000,1.729000,284.088000,0.073700,0.319400,0.206000,0.293000,0.215000,-10.110000,-0.019940,-0.004345,0.001646
1764073565074955118,2025-11-25 17:56:05.072,-1.292000,1.722000,284.091000,0.073600,0.315500,0.209300,0.336000,0.200000,-10.121000,-0.021214,-0.004408,0.002840
1764073565102035378,2025-11-25 17:56:05.099,-1.322000,1.715000,284.095000,0.073600,0.315500,0.211500,0.288000,0.253000,-10.138000,-0.021993,-0.004960,0.003018
1764073565123926600,2025-11-25 17:56:05.121,-1.355000,1.709000,284.097000,0.073700,0.321300,0.208200,0.281000,0.262000,-10.145000,-0.022930,-0.004079,0.001815
1764073565149067674,2025-11-25 17:56:05.146,-1.389000,1.702000,284.099000,0.075600,0.320400,0.213700,0.310000,0.267000,-10.153000,-0.023203,-0.003255,0.002656
1764073565172792970,2025-11-25 17:56:05.170,-1.421000,1.697000,284.104000,0.074400,0.312400,0.190900,0.289000,0.273000,-10.176000,-0.021287,-0.003051,0.003558
1764073565198091674,2025-11-25 17:56:05.195,-1.452000,1.692000,284.108000,0.074600,0.317400,0.202800,0.320000,0.263000,-10.182000,-0.018702,-0.002692,0.001628
1764073565223796933,2025-11-25 17:56:05.221,-1.481000,1.687000,284.111000,0.076300,0.312500,0.210600,0.319000,0.307000,-10.184000,-0.017194,-0.003198,0.002285
1764073565248649581,2025-11-25 17:56:05.246,-1.506000,1.684000,284.115000,0.073600,0.313500,0.209400,0.272000,0.315000,-10.140000,-0.015818,-0.002949,0.002755
1764073565275651118,2025-11-25 17:56:05.273,-1.528000,1.680000,284.118000,0.075400,0.314400,0.186600,0.304000,0.338000,-10.149000,-0.012509,-0.001921,0.002708
1764073565298879285,2025-11-25 17:56:05.296,-1.545000,1.677000,284.121000,0.077300,0.312400,0.206300,0.316000,0.325000,-10.171000,-0.009069,-0.002520,0.002712
1764073565323213433,2025-11-25 17:56:05.320,-1.557000,1.675000,284.126000,0.074500,0.314500,0.208300,0.322000,0.308000,-10.166000,-0.005413,-0.002071,0.003099
1764073565349223637,2025-11-25 17:56:05.346,-1.563000,1.672000,284.130000,0.075500,0.314400,0.208400,0.304000,0.334000,-10.147000,-0.002546,-0.002288,0.001691
1764073565374097155,2025-11-25 17:56:05.371,-1.564000,1.671000,284.133000,0.073500,0.311500,0.209400,0.294000,0.318000,-10.155000,0.001359,-0.001989,0.001477
1764073565397056452,2025-11-25 17:56:05.394,-1.560000,1.668000,284.137000,0.076500,0.320300,0.210500,0.331000,0.284000,-10.158000,0.005068,-0.001657,0.002371
1764073565423461785,2025-11-25 17:56:05.421,-1.551000,1.666000,284.140000,0.076400,0.318300,0.187700,0.265000,0.303000,-10.112000,0.008338,-0.000698,0.000860
1764073565448555303,2025-11-25 17:56:05.445,-1.540000,1.665000,284.143000,0.074500,0.313500,0.210500,0.313000,0.256000,-10.167000,0.009567,-0.000867,0.001102
1764073565477634526,2025-11-25 17:56:05.474,-1.524000,1.663000,284.143000,0.075500,0.314400,0.209400,0.307000,0.263000,-10.155000,0.011449,-0.000923,0.000790
1764073565495961174,2025-11-25 17:56:05.493,-1.506000,1.663000,284.146000,0.075400,0.313400,0.189900,0.288000,0.281000,-10.127000,0.013446,-0.001441,0.001237
1764073565523933359,2025-11-25 17:56:05.521,-1.486000,1.663000,284.148000,0.072600,0.312500,0.211500,0.311000,0.245000,-10.132000,0.014327,0.000265,0.001517
1764073565549278229,2025-11-25 17:56:05.546,-1.466000,1.663000,284.149000,0.076300,0.312400,0.185600,0.277000,0.244000,-10.114000,0.014439,0.000361,0.002702
1764073565574641396,2025-11-25 17:56:05.571,-1.443000,1.664000,284.152000,0.075400,0.313400,0.207300,0.310000,0.228000,-10.056000,0.014742,-0.000352,0.002009
1764073565598145266,2025-11-25 17:56:05.595,-1.421000,1.664000,284.155000,0.074500,0.317300,0.185400,0.302000,0.218000,-10.132000,0.013659,0.000775,0.003157
1764073565623670451,2025-11-25 17:56:05.621,-1.400000,1.665000,284.158000,0.075400,0.313400,0.202900,0.284000,0.251000,-10.088000,0.012972,0.000060,0.002541
1764073565648322692,2025-11-25 17:56:05.645,-1.381000,1.666000,284.161000,0.074500,0.315400,0.198500,0.316000,0.231000,-10.111000,0.011788,-0.000112,0.001773
1764073565674472600,2025-11-25 17:56:05.671,-1.363000,1.667000,284.164000,0.073600,0.313500,0.205000,0.277000,0.228000,-10.102000,0.011206,-0.000525,0.002282
1764073565698012600,2025-11-25 17:56:05.695,-1.345000,1.669000,284.169000,0.074600,0.316400,0.203900,0.298000,0.198000,-10.094000,0.009342,0.000528,0.003747
1764073565723714822,2025-11-25 17:56:05.721,-1.331000,1.669000,284.173000,0.074500,0.314400,0.200700,0.310000,0.206000,-10.109000,0.007537,0.000035,0.002847
1764073565749206988,2025-11-25 17:56:05.746,-1.320000,1.671000,284.178000,0.073700,0.317400,0.206100,0.287000,0.220000,-10.084000,0.005177,-0.000469,0.001525
1764073565774065359,2025-11-25 17:56:05.771,-1.312000,1.671000,284.182000,0.074500,0.315400,0.205000,0.323000,0.195000,-10.128000,0.003563,0.000138,0.003489
1764073565798104025,2025-11-25 17:56:05.795,-1.305000,1.672000,284.187000,0.076400,0.315400,0.208400,0.286000,0.216000,-10.137000,0.001677,-0.000817,0.002855
1764073565823440599,2025-11-25 17:56:05.820,-1.301000,1.673000,284.192000,0.076400,0.313400,0.205100,0.284000,0.199000,-10.122000,0.000340,0.000483,0.003170
1764073565847608748,2025-11-25 17:56:05.845,-1.301000,1.672000,284.196000,0.076400,0.314400,0.203000,0.322000,0.208000,-10.129000,-0.001066,-0.000131,0.003321
1764073565875392785,2025-11-25 17:56:05.872,-1.302000,1.673000,284.201000,0.073600,0.316400,0.187600,0.283000,0.221000,-10.167000,-0.002186,-0.000094,0.003393
1764073565899296544,2025-11-25 17:56:05.896,-1.307000,1.673000,284.206000,0.074500,0.313500,0.201800,0.298000,0.217000,-10.142000,-0.004064,-0.001427,0.001348
1764073565924135729,2025-11-25 17:56:05.921,-1.312000,1.672000,284.209000,0.077300,0.318300,0.183400,0.302000,0.226000,-10.074000,-0.004523,-0.000864,0.001747
1764073565952960322,2025-11-25 17:56:05.950,-1.318000,1.671000,284.213000,0.075400,0.314400,0.204000,0.274000,0.260000,-10.136000,-0.005165,0.000137,0.002270
1764073565972655581,2025-11-25 17:56:05.970,-1.327000,1.670000,284.217000,0.074600,0.317400,0.206100,0.293000,0.217000,-10.137000,-0.005951,-0.000715,0.001221
1764073565998492248,2025-11-25 17:56:05.995,-1.336000,1.668000,284.220000,0.073700,0.318400,0.207100,0.280000,0.236000,-10.114000,-0.006900,-0.001251,0.002679
1764073566065473655,2025-11-25 17:56:06.063,-1.356000,1.669000,284.226000,0.074600,0.317400,0.205000,0.276000,0.259000,-10.130000,-0.006741,0.000605,0.000556
1764073566074710877,2025-11-25 17:56:06.072,-1.367000,1.669000,284.231000,0.074600,0.316400,0.203900,0.268000,0.235000,-10.128000,-0.006770,0.000796,0.002285
1764073566102320581,2025-11-25 17:56:06.099,-1.376000,1.669000,284.235000,0.076300,0.313400,0.187700,0.297000,0.247000,-10.107000,-0.006649,0.000302,0.002318
1764073566124229822,2025-11-25 17:56:06.121,-1.386000,1.670000,284.238000,0.073700,0.317400,0.206100,0.270000,0.283000,-10.128000,-0.005976,0.001968,0.001501
1764073566150057877,2025-11-25 17:56:06.147,-1.395000,1.672000,284.242000,0.075500,0.317400,0.202900,0.302000,0.242000,-10.091000,-0.004809,0.002251,0.001895
1764073566174069988,2025-11-25 17:56:06.171,-1.402000,1.673000,284.245000,0.076400,0.314400,0.207300,0.280000,0.249000,-10.163000,-0.003571,0.001398,0.002815
1764073566196846007,2025-11-25 17:56:06.194,-1.407000,1.676000,284.248000,0.075600,0.319300,0.208300,0.287000,0.265000,-10.129000,-0.003101,0.002499,0.001237
1764073566224061581,2025-11-25 17:56:06.221,-1.413000,1.680000,284.250000,0.076300,0.310500,0.206300,0.329000,0.253000,-10.118000,-0.002838,0.002559,0.002366
1764073566248404488,2025-11-25 17:56:06.246,-1.416000,1.684000,284.254000,0.074500,0.317300,0.187600,0.279000,0.270000,-10.127000,-0.001297,0.002884,0.001760
1764073566275463321,2025-11-25 17:56:06.272,-1.420000,1.688000,284.256000,0.076400,0.317400,0.207300,0.280000,0.273000,-10.121000,-0.001474,0.002801,0.002348
1764073566298925433,2025-11-25 17:56:06.296,-1.421000,1.692000,284.257000,0.074500,0.315400,0.209400,0.306000,0.246000,-10.089000,-0.000764,0.003254,0.002640
1764073566322464858,2025-11-25 17:56:06.320,-1.422000,1.697000,284.261000,0.075400,0.309500,0.212700,0.274000,0.258000,-10.161000,-0.000193,0.002775,0.003908
1764073566348874192,2025-11-25 17:56:06.346,-1.422000,1.701000,284.265000,0.075400,0.311500,0.208400,0.327000,0.252000,-10.140000,-0.000280,0.002882,0.002297
1764073566374564247,2025-11-25 17:56:06.371,-1.422000,1.704000,284.270000,0.074500,0.312500,0.210500,0.296000,0.256000,-10.097000,0.001024,0.000631,0.003293
1764073566398035155,2025-11-25 17:56:06.395,-1.421000,1.709000,284.274000,0.074500,0.312500,0.211600,0.287000,0.227000,-10.149000,0.001659,0.001779,0.003497
1764073566422832858,2025-11-25 17:56:06.420,-1.419000,1.709000,284.278000,0.075500,0.316400,0.201800,0.290000,0.264000,-10.102000,0.000795,0.000304,0.002497
1764073566448743118,2025-11-25 17:56:06.445,-1.417000,1.711000,284.280000,0.078200,0.314400,0.206300,0.273000,0.250000,-10.081000,0.001167,0.000270,0.002788
1764073566473601006,2025-11-25 17:56:06.470,-1.414000,1.711000,284.285000,0.076400,0.315400,0.207300,0.334000,0.255000,-10.128000,0.000845,0.000399,0.003077
1764073566497956525,2025-11-25 17:56:06.495,-1.412000,1.711000,284.290000,0.075500,0.319300,0.184400,0.294000,0.270000,-10.121000,0.001240,-0.000420,0.002513
1764073566523272562,2025-11-25 17:56:06.520,-1.411000,1.709000,284.293000,0.075400,0.314400,0.188800,0.295000,0.246000,-10.126000,0.000404,-0.001193,0.002449
1764073566549795562,2025-11-25 17:56:06.546,-1.409000,1.708000,284.295000,0.074700,0.321300,0.207200,0.315000,0.262000,-10.139000,0.000675,0.000187,0.003839
1764073566574708451,2025-11-25 17:56:06.572,-1.407000,1.705000,284.298000,0.075500,0.315400,0.206200,0.295000,0.253000,-10.136000,0.001387,-0.001814,0.003320
1764073566598182895,2025-11-25 17:56:06.595,-1.406000,1.704000,284.302000,0.075600,0.320300,0.207200,0.330000,0.262000,-10.093000,0.000565,-0.002212,0.003140
1764073566624105877,2025-11-25 17:56:06.621,-1.404000,1.700000,284.307000,0.074600,0.315400,0.210500,0.305000,0.247000,-10.151000,0.000321,-0.003172,0.004101
1764073566648294414,2025-11-25 17:56:06.645,-1.402000,1.697000,284.309000,0.075400,0.311500,0.209500,0.271000,0.251000,-10.118000,0.000706,-0.003397,0.002123
1764073566672638414,2025-11-25 17:56:06.670,-1.400000,1.692000,284.314000,0.074500,0.313500,0.209400,0.320000,0.230000,-10.136000,0.001307,-0.002184,0.001951
1764073566698110080,2025-11-25 17:56:06.695,-1.397000,1.689000,284.318000,0.076300,0.313400,0.182300,0.280000,0.251000,-10.123000,0.001617,-0.001709,0.004489
1764073566723524506,2025-11-25 17:56:06.720,-1.396000,1.686000,284.322000,0.076400,0.314400,0.205100,0.309000,0.266000,-10.113000,0.001369,-0.002829,0.001738
1764073566748335877,2025-11-25 17:56:06.745,-1.395000,1.682000,284.324000,0.075400,0.311500,0.206200,0.273000,0.245000,-10.123000,0.001697,-0.001823,0.000851
1764073566774876469,2025-11-25 17:56:06.772,-1.394000,1.678000,284.328000,0.076400,0.314400,0.203000,0.282000,0.246000,-10.128000,0.001938,-0.001311,0.002891
1764073566797682229,2025-11-25 17:56:06.795,-1.391000,1.677000,284.330000,0.078200,0.314400,0.206300,0.320000,0.228000,-10.133000,0.001601,0.000036,0.001577
1764073566822847080,2025-11-25 17:56:06.820,-1.388000,1.674000,284.336000,0.075500,0.316400,0.205100,0.269000,0.251000,-10.113000,0.001136,-0.001779,0.000472
1764073566848753173,2025-11-25 17:56:06.845,-1.385000,1.674000,284.339000,0.077300,0.315400,0.205200,0.301000,0.259000,-10.171000,0.002250,-0.000142,0.002293
1764073566875543728,2025-11-25 17:56:06.872,-1.384000,1.670000,284.344000,0.076400,0.315400,0.205100,0.301000,0.236000,-10.125000,0.001675,-0.001532,0.002101
1764073566897860599,2025-11-25 17:56:06.895,-1.380000,1.672000,284.347000,0.075500,0.318400,0.208300,0.271000,0.269000,-10.129000,0.002027,-0.000023,0.001158
1764073566924261673,2025-11-25 17:56:06.921,-1.378000,1.671000,284.349000,0.074600,0.317400,0.208300,0.327000,0.236000,-10.175000,0.001768,-0.000798,0.001968
1764073566945842025,2025-11-25 17:56:06.943,-1.376000,1.671000,284.352000,0.077400,0.320200,0.184500,0.310000,0.226000,-10.138000,0.001096,-0.000276,0.002024
1764073566974233784,2025-11-25 17:56:06.971,-1.373000,1.672000,284.354000,0.075500,0.320300,0.187600,0.305000,0.226000,-10.122000,0.001719,0.000661,0.001854
1764073567001029377,2025-11-25 17:56:06.997,-1.371000,1.671000,284.357000,0.075400,0.311500,0.209500,0.315000,0.226000,-10.105000,0.001341,0.000720,0.002672
1764073567064870525,2025-11-25 17:56:07.062,-1.367000,1.672000,284.362000,0.076200,0.308400,0.181300,0.320000,0.225000,-10.094000,0.000025,-0.001375,0.001971
1764073567074504247,2025-11-25 17:56:07.072,-1.365000,1.671000,284.365000,0.076500,0.319300,0.202900,0.315000,0.257000,-10.121000,0.000711,0.000230,0.001765
1764073567097284988,2025-11-25 17:56:07.094,-1.365000,1.671000,284.369000,0.077300,0.314400,0.207400,0.275000,0.223000,-10.094000,-0.001930,-0.001260,0.001468
1764073567124375839,2025-11-25 17:56:07.121,-1.365000,1.671000,284.372000,0.076400,0.316400,0.200800,0.314000,0.216000,-10.094000,-0.001144,-0.000431,0.001453
1764073567150639913,2025-11-25 17:56:07.147,-1.365000,1.669000,284.376000,0.074700,0.321300,0.207200,0.286000,0.199000,-10.122000,-0.000806,-0.001531,0.004313
1764073567175702062,2025-11-25 17:56:07.172,-1.367000,1.669000,284.378000,0.074500,0.313400,0.200700,0.321000,0.216000,-10.110000,-0.002817,-0.001001,0.003542
1764073567196944951,2025-11-25 17:56:07.194,-1.368000,1.666000,284.384000,0.075400,0.315400,0.187700,0.304000,0.234000,-10.089000,-0.001565,-0.001853,0.003393
1764073567223293080,2025-11-25 17:56:07.220,-1.371000,1.665000,284.389000,0.074500,0.314400,0.206100,0.286000,0.240000,-10.066000,-0.002321,-0.002305,0.003436
1764073567248054728,2025-11-25 17:56:07.245,-1.374000,1.662000,284.395000,0.076500,0.321200,0.185500,0.322000,0.225000,-10.136000,-0.002703,-0.001719,0.003431
1764073567275454950,2025-11-25 17:56:07.272,-1.377000,1.659000,284.399000,0.079200,0.315400,0.208500,0.271000,0.253000,-10.107000,-0.003459,-0.002207,0.002521
1764073567299356080,2025-11-25 17:56:07.297,-1.379000,1.658000,284.405000,0.075600,0.320300,0.204000,0.302000,0.257000,-10.100000,-0.002358,-0.001822,0.004099
1764073567322912765,2025-11-25 17:56:07.320,-1.384000,1.654000,284.410000,0.075500,0.318400,0.208300,0.296000,0.258000,-10.114000,-0.002038,-0.001166,0.005375
1764073567349099617,2025-11-25 17:56:07.346,-1.388000,1.654000,284.416000,0.078300,0.317300,0.210700,0.272000,0.293000,-10.140000,-0.003165,-0.001730,0.003153
1764073567374690228,2025-11-25 17:56:07.371,-1.393000,1.651000,284.421000,0.077300,0.312400,0.207400,0.304000,0.244000,-10.127000,-0.003064,-0.000325,0.003268
1764073567398544561,2025-11-25 17:56:07.396,-1.396000,1.650000,284.426000,0.076400,0.314400,0.208400,0.275000,0.254000,-10.116000,-0.001033,0.000165,0.004112
1764073567422898265,2025-11-25 17:56:07.420,-1.399000,1.650000,284.431000,0.075500,0.319300,0.184400,0.278000,0.256000,-10.122000,-0.001429,0.000495,0.003219
1764073567448025932,2025-11-25 17:56:07.445,-1.401000,1.649000,284.436000,0.077300,0.312500,0.213900,0.279000,0.256000,-10.140000,-0.001040,0.000952,0.004122
1764073567475741543,2025-11-25 17:56:07.472,-1.402000,1.651000,284.441000,0.076300,0.310500,0.209500,0.254000,0.252000,-10.127000,-0.000484,0.001497,0.003864
1764073567499862080,2025-11-25 17:56:07.497,-1.402000,1.652000,284.444000,0.077300,0.316300,0.190000,0.305000,0.245000,-10.117000,0.001223,0.000865,0.002270
1764073567523461543,2025-11-25 17:56:07.521,-1.401000,1.655000,284.449000,0.078200,0.313400,0.209600,0.295000,0.256000,-10.135000,0.000864,0.002693,0.002153
1764073567549641006,2025-11-25 17:56:07.546,-1.399000,1.661000,284.453000,0.080200,0.317300,0.207500,0.304000,0.250000,-10.130000,0.002301,0.002623,0.003802
1764073567575272339,2025-11-25 17:56:07.572,-1.396000,1.665000,284.457000,0.077200,0.312400,0.186700,0.294000,0.246000,-10.102000,0.002240,0.003202,0.001482
1764073567598951950,2025-11-25 17:56:07.596,-1.393000,1.670000,284.460000,0.075500,0.315400,0.208400,0.283000,0.239000,-10.142000,0.002298,0.003971,0.002289
1764073567625250284,2025-11-25 17:56:07.623,-1.389000,1.675000,284.461000,0.075500,0.317400,0.205100,0.317000,0.252000,-10.198000,0.003848,0.004041,0.002713
1764073567647753691,2025-11-25 17:56:07.645,-1.384000,1.681000,284.463000,0.078300,0.319200,0.184500,0.277000,0.263000,-10.135000,0.004172,0.004178,0.001094
1764073567674452080,2025-11-25 17:56:07.671,-1.378000,1.686000,284.466000,0.079200,0.314400,0.207500,0.304000,0.239000,-10.122000,0.003210,0.003902,0.001841
1764073567698180006,2025-11-25 17:56:07.695,-1.373000,1.692000,284.469000,0.079100,0.314300,0.190100,0.309000,0.248000,-10.135000,0.002448,0.004523,0.002584
1764073567723313209,2025-11-25 17:56:07.720,-1.369000,1.697000,284.475000,0.076400,0.313400,0.206200,0.284000,0.244000,-10.136000,0.002444,0.004769,0.002367
1764073567748034506,2025-11-25 17:56:07.745,-1.365000,1.701000,284.478000,0.078200,0.314400,0.208500,0.337000,0.216000,-10.116000,0.003094,0.002566,0.002485
1764073567775264987,2025-11-25 17:56:07.772,-1.362000,1.706000,284.483000,0.075500,0.317300,0.186600,0.304000,0.235000,-10.098000,0.002469,0.003301,0.002152
1764073567799133098,2025-11-25 17:56:07.796,-1.359000,1.710000,284.486000,0.073600,0.315500,0.209300,0.313000,0.235000,-10.163000,-0.000011,0.002022,0.001805
1764073567823010043,2025-11-25 17:56:07.820,-1.358000,1.712000,284.489000,0.076300,0.312500,0.208400,0.333000,0.215000,-10.097000,-0.000499,0.001335,0.002960
1764073567850202376,2025-11-25 17:56:07.846,-1.358000,1.715000,284.492000,0.076300,0.313400,0.189900,0.302000,0.217000,-10.113000,-0.002160,0.000210,0.003536
1764073567876360820,2025-11-25 17:56:07.873,-1.359000,1.717000,284.496000,0.077300,0.313400,0.204100,0.308000,0.251000,-10.063000,-0.002274,0.000987,0.002134
1764073567897710932,2025-11-25 17:56:07.894,-1.363000,1.716000,284.500000,0.075500,0.318400,0.201800,0.323000,0.219000,-10.111000,-0.002858,-0.000899,0.003212
1764073567925524839,2025-11-25 17:56:07.921,-1.367000,1.716000,284.505000,0.077300,0.315400,0.204100,0.308000,0.226000,-10.127000,-0.003447,-0.002067,0.003946
1764073567950788839,2025-11-25 17:56:07.948,-1.373000,1.715000,284.509000,0.076400,0.320200,0.184400,0.323000,0.230000,-10.140000,-0.004656,-0.002597,0.003320
1764073567975833006,2025-11-25 17:56:07.973,-1.379000,1.712000,284.515000,0.077300,0.316400,0.204100,0.285000,0.235000,-10.112000,-0.006110,-0.002136,0.004238
1764073567997696154,2025-11-25 17:56:07.994,-1.388000,1.709000,284.520000,0.076400,0.314400,0.203000,0.303000,0.242000,-10.146000,-0.005981,-0.002620,0.005400
1764073568064832617,2025-11-25 17:56:08.062,-1.404000,1.701000,284.533000,0.076400,0.315400,0.206200,0.289000,0.242000,-10.108000,-0.006580,-0.004498,0.004082
1764073568074228783,2025-11-25 17:56:08.071,-1.413000,1.694000,284.541000,0.076400,0.316400,0.211700,0.303000,0.262000,-10.137000,-0.005037,-0.004009,0.004928
1764073568098251746,2025-11-25 17:56:08.095,-1.420000,1.689000,284.547000,0.077400,0.316400,0.207400,0.290000,0.226000,-10.143000,-0.004220,-0.004046,0.003385
1764073568122221524,2025-11-25 17:56:08.119,-1.426000,1.684000,284.553000,0.077300,0.314400,0.206300,0.304000,0.276000,-10.142000,-0.004308,-0.004436,0.003102
1764073568149826580,2025-11-25 17:56:08.146,-1.432000,1.679000,284.558000,0.076200,0.309400,0.188900,0.310000,0.250000,-10.134000,-0.002704,-0.003916,0.003699
1764073568174124950,2025-11-25 17:56:08.171,-1.436000,1.675000,284.562000,0.076400,0.314400,0.210600,0.275000,0.276000,-10.135000,-0.001705,-0.002511,0.003398
1764073568198076043,2025-11-25 17:56:08.195,-1.438000,1.670000,284.568000,0.077300,0.316300,0.184500,0.322000,0.274000,-10.112000,-0.001030,-0.003144,0.002149
1764073568223483542,2025-11-25 17:56:08.220,-1.440000,1.665000,284.573000,0.077300,0.313400,0.206300,0.281000,0.280000,-10.164000,0.001211,-0.002750,0.004664
1764073568248202357,2025-11-25 17:56:08.245,-1.439000,1.663000,284.578000,0.078300,0.318300,0.200900,0.297000,0.303000,-10.143000,0.000910,-0.002176,0.002646
1764073568275544265,2025-11-25 17:56:08.272,-1.436000,1.659000,284.581000,0.077300,0.315400,0.201900,0.303000,0.268000,-10.138000,0.004072,-0.001356,0.001347
1764073568299606672,2025-11-25 17:56:08.296,-1.431000,1.658000,284.582000,0.077200,0.314300,0.183400,0.272000,0.295000,-10.112000,0.005209,-0.001179,0.002167
1764073568324664431,2025-11-25 17:56:08.321,-1.425000,1.657000,284.584000,0.075500,0.317300,0.186600,0.323000,0.281000,-10.127000,0.005675,-0.000777,0.001523
1764073568350420283,2025-11-25 17:56:08.347,-1.418000,1.657000,284.586000,0.078300,0.317300,0.205200,0.297000,0.262000,-10.093000,0.006955,0.000454,0.001132
1764073568375504913,2025-11-25 17:56:08.372,-1.408000,1.657000,284.588000,0.077200,0.312400,0.181300,0.287000,0.250000,-10.137000,0.007591,0.000499,0.002951
1764073568399827320,2025-11-25 17:56:08.396,-1.398000,1.658000,284.590000,0.077300,0.314400,0.205200,0.312000,0.269000,-10.112000,0.008447,0.001713,0.000832
1764073568423755579,2025-11-25 17:56:08.420,-1.387000,1.660000,284.592000,0.077200,0.312400,0.191100,0.269000,0.248000,-10.111000,0.008155,0.000752,0.000997
1764073568448076728,2025-11-25 17:56:08.445,-1.377000,1.662000,284.595000,0.076300,0.314400,0.188800,0.290000,0.225000,-10.099000,0.006717,0.000423,0.002208
1764073568475573672,2025-11-25 17:56:08.472,-1.367000,1.663000,284.597000,0.078300,0.315400,0.210700,0.287000,0.226000,-10.108000,0.006899,0.001939,0.000969
1764073568499677283,2025-11-25 17:56:08.496,-1.358000,1.666000,284.600000,0.076400,0.315400,0.208400,0.271000,0.236000,-10.103000,0.005213,0.001287,0.001095
1764073568522920431,2025-11-25 17:56:08.520,-1.349000,1.668000,284.603000,0.076400,0.313400,0.208400,0.304000,0.198000,-10.121000,0.004483,0.001578,0.002901
1764073568549219653,2025-11-25 17:56:08.546,-1.344000,1.669000,284.605000,0.076400,0.317400,0.208400,0.292000,0.216000,-10.072000,0.001510,0.000886,0.003194
1764073568574254209,2025-11-25 17:56:08.571,-1.340000,1.673000,284.609000,0.079200,0.317300,0.208500,0.312000,0.193000,-10.089000,0.000765,0.002138,0.004086
1764073568598023468,2025-11-25 17:56:08.595,-1.338000,1.674000,284.614000,0.079200,0.314400,0.210700,0.303000,0.182000,-10.085000,-0.000909,0.001293,0.004592
1764073568623746431,2025-11-25 17:56:08.621,-1.339000,1.676000,284.620000,0.076300,0.314400,0.189900,0.303000,0.195000,-10.113000,-0.002424,0.002639,0.003662
1764073568648060616,2025-11-25 17:56:08.645,-1.342000,1.677000,284.627000,0.077200,0.314300,0.181300,0.310000,0.207000,-10.112000,-0.004069,0.000153,0.004452
1764073568673957320,2025-11-25 17:56:08.671,-1.348000,1.679000,284.633000,0.075500,0.315400,0.207300,0.276000,0.210000,-10.093000,-0.007384,0.001730,0.005362
1764073568697985376,2025-11-25 17:56:08.695,-1.359000,1.681000,284.641000,0.076300,0.311400,0.187800,0.283000,0.209000,-10.120000,-0.008648,0.000723,0.004820
1764073568722743098,2025-11-25 17:56:08.720,-1.370000,1.682000,284.649000,0.078300,0.317300,0.207400,0.300000,0.217000,-10.074000,-0.009648,0.000534,0.004658
1764073568748707764,2025-11-25 17:56:08.745,-1.384000,1.684000,284.658000,0.076300,0.313400,0.183400,0.276000,0.231000,-10.135000,-0.011662,0.001081,0.005621
1764073568774837783,2025-11-25 17:56:08.772,-1.400000,1.685000,284.665000,0.078200,0.315300,0.185700,0.301000,0.235000,-10.130000,-0.011627,0.000486,0.004254
1764073568799261301,2025-11-25 17:56:08.796,-1.416000,1.686000,284.673000,0.077300,0.315400,0.206300,0.298000,0.277000,-10.144000,-0.012624,0.000720,0.005676
1764073568823031579,2025-11-25 17:56:08.820,-1.433000,1.689000,284.680000,0.080100,0.314300,0.189000,0.286000,0.264000,-10.122000,-0.012230,0.001414,0.004340
1764073568848663431,2025-11-25 17:56:08.845,-1.450000,1.690000,284.687000,0.078400,0.323200,0.207400,0.324000,0.263000,-10.127000,-0.011555,0.001708,0.005767
1764073568875084857,2025-11-25 17:56:08.872,-1.466000,1.693000,284.692000,0.078200,0.314400,0.209600,0.291000,0.274000,-10.152000,-0.008902,0.001682,0.004194
1764073568899108098,2025-11-25 17:56:08.896,-1.480000,1.695000,284.699000,0.076500,0.320300,0.206200,0.301000,0.289000,-10.188000,-0.008492,0.001401,0.003397
1764073568923375579,2025-11-25 17:56:08.920,-1.491000,1.697000,284.704000,0.080100,0.314300,0.206400,0.280000,0.286000,-10.155000,-0.005779,0.002346,0.003643
1764073568951715561,2025-11-25 17:56:08.949,-1.501000,1.701000,284.707000,0.076300,0.312500,0.209500,0.296000,0.309000,-10.151000,-0.004711,0.002068,0.001812
1764073568973357727,2025-11-25 17:56:08.970,-1.506000,1.704000,284.711000,0.077300,0.315400,0.207400,0.327000,0.300000,-10.159000,-0.001241,0.001803,0.001901
1764073568997728246,2025-11-25 17:56:08.994,-1.507000,1.708000,284.715000,0.077200,0.313400,0.186700,0.276000,0.318000,-10.161000,0.000788,0.002593,0.001015
1764073569064761301,2025-11-25 17:56:09.062,-1.497000,1.715000,284.719000,0.075400,0.315400,0.186600,0.316000,0.291000,-10.165000,0.006674,0.002426,0.000375
1764073569073995209,2025-11-25 17:56:09.071,-1.485000,1.719000,284.719000,0.079100,0.314300,0.183500,0.276000,0.315000,-10.149000,0.009587,0.001666,0.001625
1764073569097740672,2025-11-25 17:56:09.095,-1.471000,1.722000,284.721000,0.076300,0.312500,0.207300,0.329000,0.285000,-10.149000,0.011659,0.002789,0.001654
1764073569123366505,2025-11-25 17:56:09.120,-1.454000,1.726000,284.723000,0.079100,0.313400,0.204200,0.274000,0.309000,-10.120000,0.013012,0.002671,0.001347
