Timestamp,Time,Roll,Pitch,Yaw,Velocity_Increment_X,Velocity_Increment_Y,Velocity_Increment_Z,Acc_X,Acc_Y,Acc_Z,Gyro_X,Gyro_Y,Gyro_Z,Mag_X,Mag_Y,Mag_Z,Pressure
1764073539980629837,2025-11-25 17:55:39.973,0.297439,0.837958,282.784637,0.016866,0.011913,0.978000,0.152323,0.142032,9.767041,0.005399,0.009810,0.005428,0.338824,-0.631215,-1.203332,100339.0000
1764073540075649244,2025-11-25 17:55:40.073,0.285068,0.771287,282.779419,0.014518,0.011386,0.977163,0.095486,0.191031,9.757016,-0.004495,0.014866,0.002585,0.338813,-0.630300,-1.205272,100336.0000
1764073540176626041,2025-11-25 17:55:40.173,0.270537,0.714083,282.770142,0.010531,0.008521,0.977282,0.075750,0.033204,9.775462,-0.000808,0.011277,0.001218,0.340262,-0.629806,-1.204819,100344.0000
1764073540275866726,2025-11-25 17:55:40.273,0.263907,0.686465,282.763329,0.008062,0.006871,0.978089,0.083782,-0.008621,9.793232,-0.001307,0.002239,0.002857,0.339750,-0.632247,-1.207183,100337.0000
1764073540376264189,2025-11-25 17:55:40.373,0.282029,0.705337,282.754654,0.006961,0.007552,0.978817,0.075913,0.121174,9.787072,0.010194,-0.007515,0.008863,0.337850,-0.631249,-1.204762,100339.0000
1764073540477167392,2025-11-25 17:55:40.474,0.311520,0.765471,282.744232,0.008789,0.009097,0.979544,0.088744,0.183289,9.786253,0.000763,-0.013520,-0.000235,0.338357,-0.629763,-1.202384,100343.0000
1764073540577034763,2025-11-25 17:55:40.573,0.334936,0.838213,282.734711,0.012268,0.010603,0.979260,0.178987,0.049589,9.814380,0.003262,-0.010315,0.001995,0.338325,-0.633147,-1.204258,100339.0000
1764073540675663318,2025-11-25 17:55:40.673,0.337602,0.890234,282.725998,0.016142,0.012294,0.979142,0.215869,0.065581,9.790315,-0.002440,-0.005257,0.002660,0.338825,-0.629324,-1.204324,100341.0000
1764073540776863726,2025-11-25 17:55:40.773,0.318036,0.900290,282.717247,0.017486,0.012997,0.978603,0.144136,0.218712,9.748478,-0.000742,0.002746,0.001417,0.336407,-0.632668,-1.203756,100341.0000
1764073540876473448,2025-11-25 17:55:40.873,0.279687,0.868707,282.712082,0.016629,0.011070,0.978457,0.114419,0.128727,9.790507,-0.007235,0.007454,-0.002666,0.338318,-0.630810,-1.206702,100341.0000
1764073540976254874,2025-11-25 17:55:40.973,0.239309,0.816213,282.707169,0.014274,0.008490,0.978340,0.127978,-0.017536,9.803496,-0.001756,0.009017,0.003570,0.336891,-0.628886,-1.205747,100340.0000
1764073541075317725,2025-11-25 17:55:41.072,0.217378,0.760796,282.700897,0.011422,0.006706,0.978513,0.111817,0.054776,9.782422,-0.000545,0.006713,0.004181,0.338818,-0.629344,-1.205287,100339.0000
1764073541177237855,2025-11-25 17:55:41.173,0.218441,0.733012,282.696259,0.008958,0.006427,0.978493,0.058004,0.156209,9.757321,0.005731,-0.001673,0.003108,0.339274,-0.632706,-1.206205,100349.0000
1764073541275990855,2025-11-25 17:55:41.273,0.247213,0.743052,282.687958,0.008556,0.006641,0.978730,0.100134,0.069989,9.818303,0.012870,-0.005679,-0.000195,0.338794,-0.631763,-1.206695,100341.0000
1764073541375908281,2025-11-25 17:55:41.373,0.287791,0.783330,282.675552,0.009200,0.008832,0.978885,0.137051,0.015363,9.809417,0.001318,-0.008800,0.002731,0.337369,-0.632664,-1.203770,100339.0000
1764073541476538207,2025-11-25 17:55:41.473,0.316704,0.839957,282.666016,0.011796,0.012243,0.978961,0.124990,0.167438,9.782930,0.006703,-0.010351,0.006274,0.335918,-0.632691,-1.204712,100341.0000
1764073541576103744,2025-11-25 17:55:41.573,0.317483,0.886379,282.659012,0.014385,0.013941,0.979033,0.115698,0.222170,9.788673,-0.004330,-0.005597,0.000248,0.336888,-0.632666,-1.203763,100341.0000
1764073541676122484,2025-11-25 17:55:41.673,0.289965,0.905861,282.650719,0.016450,0.011951,0.978720,0.187013,0.037271,9.811071,-0.001547,-0.001787,0.002887,0.334958,-0.629860,-1.206185,100339.0000
1764073541775618595,2025-11-25 17:55:41.772,0.252388,0.888542,282.645424,0.016802,0.009037,0.978007,0.183259,0.039054,9.775695,-0.005188,0.004205,0.007093,0.335927,-0.630780,-1.204741,100345.0000
1764073541876053169,2025-11-25 17:55:41.873,0.234919,0.840984,282.643150,0.015869,0.005607,0.977295,0.130596,0.133641,9.751014,-0.000476,0.009146,0.000614,0.336398,-0.631276,-1.205703,100341.0000
1764073541976631595,2025-11-25 17:55:41.973,0.257797,0.779180,282.645287,0.013012,0.004665,0.977802,0.090743,0.068177,9.800245,0.012041,0.011118,-0.001087,0.338795,-0.630818,-1.207190,100335.0000
1764073542075354928,2025-11-25 17:55:42.072,0.304358,0.734683,282.641693,0.009389,0.007908,0.978749,0.099592,0.031897,9.804858,0.008091,0.004532,0.001214,0.336400,-0.631744,-1.205215,100339.0000
1764073542176167095,2025-11-25 17:55:42.173,0.340727,0.741510,282.638962,0.006641,0.013115,0.980047,0.043301,0.203686,9.789631,0.004222,-0.001159,0.006319,0.335911,-0.634124,-1.204690,100341.0000
1764073542275812576,2025-11-25 17:55:42.273,0.329246,0.801060,282.634216,0.006997,0.016139,0.980457,0.094871,0.221822,9.781961,-0.006827,-0.011041,0.000202,0.337357,-0.631282,-1.206199,100341.0000
1764073542375886965,2025-11-25 17:55:42.373,0.270420,0.888782,282.618958,0.011120,0.013931,0.978944,0.158031,0.038558,9.789021,-0.006240,-0.014938,0.003492,0.335409,-0.631352,-1.209059,100342.0000
1764073542475632558,2025-11-25 17:55:42.473,0.203783,0.949866,282.603592,0.016664,0.007982,0.976735,0.218723,0.008879,9.767734,-0.006899,-0.006991,0.003119,0.335406,-0.634188,-1.207571,100339.0000
1764073542575678724,2025-11-25 17:55:42.573,0.176110,0.954922,282.600426,0.019310,0.004323,0.975637,0.187495,0.125088,9.735859,0.004113,0.005789,0.004383,0.335907,-0.630364,-1.207637,100349.0000
1764073542675679484,2025-11-25 17:55:42.673,0.193470,0.896359,282.603119,0.017965,0.004551,0.977410,0.133171,0.088679,9.796591,0.001966,0.013016,-0.000428,0.336859,-0.632270,-1.207622,100342.0000
1764073542776071872,2025-11-25 17:55:42.773,0.235754,0.820057,282.606911,0.013032,0.008885,0.980267,0.147904,0.028195,9.836948,0.009998,0.011754,0.000797,0.336878,-0.630806,-1.206199,100339.0000
1764073542875634002,2025-11-25 17:55:42.873,0.264654,0.773121,282.602814,0.008755,0.011675,0.981784,0.080357,0.121832,9.797779,0.002663,0.005290,0.005523,0.337856,-0.633119,-1.202807,100337.0000
1764073542975885613,2025-11-25 17:55:42.973,0.274582,0.772269,282.593315,0.007913,0.010564,0.980485,0.057186,0.182143,9.770827,0.000928,-0.005047,0.002361,0.337828,-0.631778,-1.207162,100336.0000
1764073543075575520,2025-11-25 17:55:43.073,0.285754,0.809242,282.583435,0.009278,0.008855,0.978166,0.100769,0.093511,9.766451,0.003363,-0.009376,0.003290,0.334463,-0.632728,-1.206134,100337.0000
1764073543178168520,2025-11-25 17:55:43.173,0.298252,0.858711,282.580833,0.011239,0.009871,0.976947,0.153577,0.036797,9.793903,0.001485,-0.004086,-0.000594,0.336888,-0.632666,-1.203763,100341.0000
1764073543275985206,2025-11-25 17:55:43.273,0.300291,0.903141,282.571243,0.013335,0.011805,0.976740,0.145026,0.139056,9.762842,0.003092,-0.007184,0.006512,0.334483,-0.631732,-1.204224,100339.0000
1764073543376567668,2025-11-25 17:55:43.373,0.285444,0.930373,282.564590,0.014886,0.011990,0.977846,0.126502,0.212319,9.761626,-0.005672,-0.002318,-0.001369,0.335446,-0.633140,-1.203253,100341.0000
1764073543476409650,2025-11-25 17:55:43.473,0.250786,0.931258,282.564308,0.014963,0.010957,0.979156,0.133453,0.092148,9.794325,-0.009933,0.000776,-0.004444,0.332560,-0.632208,-1.203707,100341.0000
1764073543576326835,2025-11-25 17:55:43.573,0.217857,0.915098,282.566658,0.014670,0.008662,0.979827,0.155927,-0.015388,9.802596,-0.003648,0.002042,0.000206,0.335416,-0.632277,-1.207600,100337.0000
1764073543676354816,2025-11-25 17:55:43.673,0.198940,0.892713,282.563385,0.013585,0.006524,0.979819,0.119943,0.068499,9.788779,0.004062,0.003147,0.004677,0.333509,-0.631767,-1.205654,100337.0000
1764073543775941798,2025-11-25 17:55:43.773,0.216759,0.863319,282.556152,0.012954,0.006027,0.979117,0.103246,0.156222,9.761090,0.002513,0.007968,0.000131,0.335441,-0.632683,-1.204223,100340.0000
1764073543875869057,2025-11-25 17:55:43.873,0.248210,0.836021,282.551147,0.012244,0.008357,0.978396,0.125145,0.096449,9.793220,0.010085,0.003319,-0.001267,0.336387,-0.632719,-1.206163,100339.0000
1764073543975578798,2025-11-25 17:55:43.972,0.271420,0.817805,282.546814,0.011013,0.011382,0.977881,0.125020,0.022270,9.818129,0.005539,-0.001560,0.001469,0.333035,-0.632694,-1.204188,100331.0000
1764073544075691075,2025-11-25 17:55:44.073,0.271760,0.820671,282.543594,0.009592,0.013086,0.977787,0.090664,0.137661,9.769120,-0.004114,-0.003996,0.003821,0.333505,-0.631777,-1.206135,100341.0000
1764073544176111557,2025-11-25 17:55:44.173,0.251780,0.851344,282.539894,0.009316,0.011872,0.978294,0.074614,0.193556,9.758978,-0.000887,-0.011391,0.000230,0.334973,-0.628407,-1.205245,100342.0000
1764073544277319427,2025-11-25 17:55:44.274,0.230576,0.902577,282.536034,0.010401,0.008441,0.978557,0.118316,0.061157,9.795201,-0.004475,-0.009184,-0.003285,0.334953,-0.631760,-1.205675,100341.0000
1764073544383205668,2025-11-25 17:55:44.373,0.223446,0.955894,282.528732,0.012860,0.006455,0.978965,0.181265,-0.043375,9.799470,0.004095,-0.011915,0.004422,0.333024,-0.631779,-1.206128,100339.0000
1764073544481937168,2025-11-25 17:55:44.473,0.231942,0.989635,282.522926,0.015843,0.006961,0.978973,0.178474,0.069400,9.775414,0.003282,-0.001914,0.006795,0.333494,-0.631808,-1.207579,100338.0000
1764073544583622464,2025-11-25 17:55:44.573,0.259855,0.989253,282.520210,0.017398,0.008875,0.978615,0.148553,0.181536,9.773330,0.005085,0.007145,0.003025,0.333995,-0.633167,-1.204195,100339.0000
1764073544682759890,2025-11-25 17:55:44.673,0.278586,0.951334,282.517700,0.016323,0.010782,0.979048,0.136379,0.166687,9.796132,0.009063,0.007599,-0.002644,0.335438,-0.633160,-1.204216,100342.0000
1764073544784581612,2025-11-25 17:55:44.773,0.282242,0.891839,282.515823,0.013929,0.011978,0.978986,0.129910,0.042021,9.800978,0.001945,0.011240,-0.001211,0.336384,-0.632730,-1.206644,100337.0000
1764073544895832186,2025-11-25 17:55:44.883,0.272690,0.841652,282.514992,0.011007,0.011654,0.978189,0.111087,0.052837,9.784305,-0.001776,0.008046,0.004259,0.333979,-0.633208,-1.206120,100339.0000
1764073545016918149,2025-11-25 17:55:44.977,0.250064,0.823001,282.514046,0.008482,0.010007,0.977775,0.077255,0.152128,9.766329,-0.006557,0.000603,0.001617,0.334479,-0.634100,-1.203224,100341.0000
1764073545077095186,2025-11-25 17:55:45.069,0.229875,0.840612,282.512566,0.007963,0.008918,0.977824,0.053428,0.163041,9.759994,0.002395,-0.005045,0.000729,0.336876,-0.631284,-1.206192,100344.0000
1764073545179374538,2025-11-25 17:55:45.173,0.219412,0.893503,282.511185,0.009479,0.007770,0.978605,0.102384,0.074651,9.799627,-0.003422,-0.012414,-0.003080,0.334475,-0.631752,-1.205187,100341.0000
1764073545279813815,2025-11-25 17:55:45.273,0.224107,0.957719,282.510994,0.012322,0.008045,0.979541,0.180200,-0.008831,9.828761,0.002435,-0.012028,-0.001242,0.333473,-0.632804,-1.209490,100337.0000
1764073545378656297,2025-11-25 17:55:45.373,0.235446,1.003591,282.510689,0.014597,0.008419,0.979392,0.182216,0.014433,9.812947,0.004666,-0.003758,0.002061,0.333023,-0.631312,-1.206617,100339.0000
1764073545480516223,2025-11-25 17:55:45.473,0.257123,1.025135,282.504890,0.015993,0.008903,0.978788,0.140844,0.151911,9.780971,0.006795,0.005540,0.005326,0.330617,-0.631322,-1.206581,100335.0000
1764073545582082463,2025-11-25 17:55:45.573,0.276699,1.007059,282.496529,0.016618,0.009712,0.978165,0.149418,0.197513,9.750320,0.004353,0.009798,0.001711,0.332552,-0.630816,-1.205654,100339.0000
1764073545677025537,2025-11-25 17:55:45.673,0.290807,0.961086,282.488693,0.015350,0.010232,0.977688,0.141111,0.114286,9.775651,0.003741,0.012701,-0.003915,0.333507,-0.632245,-1.205646,100339.0000
1764073545777193797,2025-11-25 17:55:45.773,0.300253,0.899623,282.485527,0.013409,0.010826,0.978118,0.132795,0.010769,9.798095,-0.007150,0.006727,-0.002725,0.334468,-0.633185,-1.205164,100336.0000
1764073545876878519,2025-11-25 17:55:45.873,0.290490,0.851754,282.491165,0.009941,0.011430,0.978972,0.092971,0.056790,9.797863,-0.000534,0.006130,0.001948,0.333982,-0.632730,-1.206127,100332.0000
1764073545979720834,2025-11-25 17:55:45.975,0.266267,0.843320,282.498924,0.007795,0.011317,0.979780,0.051234,0.190372,9.772151,-0.006280,-0.000679,0.002711,0.333513,-0.631757,-1.205172,100339.0000
1764073546082026093,2025-11-25 17:55:46.078,0.238065,0.884099,282.500175,0.007757,0.009752,0.980285,0.051607,0.169829,9.785978,-0.000422,-0.012854,0.000668,0.332083,-0.633613,-1.202233,100342.0000
1764073546176604185,2025-11-25 17:55:46.173,0.220685,0.950753,282.491631,0.011148,0.007762,0.979161,0.140424,0.017962,9.788704,-0.001715,-0.010532,-0.001509,0.332533,-0.632279,-1.207076,100337.0000
1764073546280855870,2025-11-25 17:55:46.273,0.224293,1.004788,282.479828,0.014689,0.006489,0.977391,0.193678,-0.029236,9.797631,0.007829,-0.003510,0.003514,0.334948,-0.632716,-1.205660,100343.0000
1764073546375692352,2025-11-25 17:55:46.373,0.246535,1.023534,282.475517,0.017137,0.007202,0.976544,0.160523,0.116117,9.753955,0.002717,-0.000228,0.003859,0.332053,-0.631337,-1.207565,100339.0000
1764073546476101259,2025-11-25 17:55:46.473,0.279400,0.996845,282.475655,0.016316,0.009313,0.977149,0.121782,0.203625,9.764362,0.008555,0.007126,0.000787,0.333980,-0.629905,-1.208097,100336.0000
1764073546575662204,2025-11-25 17:55:46.573,0.301251,0.950940,282.483070,0.013544,0.012094,0.978907,0.121008,0.153134,9.799286,0.001623,0.007889,-0.002782,0.331577,-0.631796,-1.206588,100341.0000
1764073546675758759,2025-11-25 17:55:46.673,0.293215,0.914050,282.488564,0.011190,0.012771,0.980371,0.119407,0.022749,9.825588,-0.001163,0.008578,-0.003119,0.333021,-0.634615,-1.204640,100343.0000
1764073546775796092,2025-11-25 17:55:46.773,0.268391,0.905422,282.487625,0.009811,0.010983,0.980256,0.117485,0.058494,9.809269,-0.001018,-0.001339,0.005666,0.331114,-0.632692,-1.203678,100340.0000
1764073546876401518,2025-11-25 17:55:46.873,0.247474,0.923885,282.484543,0.010476,0.008436,0.979278,0.088888,0.132879,9.761295,0.000585,-0.004460,0.007148,0.332541,-0.632259,-1.206113,100347.0000
1764073546975791074,2025-11-25 17:55:46.973,0.243030,0.951885,282.478783,0.011566,0.007327,0.978303,0.101777,0.101505,9.782878,0.005093,-0.005930,-0.000255,0.332058,-0.633206,-1.205610,100339.0000
1764073547076212111,2025-11-25 17:55:47.073,0.252394,0.972033,282.475624,0.013196,0.008435,0.977567,0.160442,0.011440,9.788270,0.005153,-0.006203,-0.002324,0.333015,-0.631332,-1.207579,100345.0000
1764073547175893888,2025-11-25 17:55:47.173,0.264636,0.985915,282.475967,0.013272,0.010086,0.977732,0.159861,0.049772,9.792665,0.003815,-0.003470,0.000028,0.332554,-0.630338,-1.205661,100339.0000
1764073547276360388,2025-11-25 17:55:47.273,0.262598,0.985343,282.478531,0.013251,0.011146,0.978315,0.124345,0.171298,9.764636,-0.002941,0.004601,-0.001111,0.333028,-0.633182,-1.204662,100340.0000
1764073547377002666,2025-11-25 17:55:47.374,0.251911,0.980207,282.487099,0.012736,0.010238,0.978413,0.104760,0.150411,9.779721,0.004059,-0.001795,-0.002075,0.333995,-0.630809,-1.205675,100343.0000
1764073547475794092,2025-11-25 17:55:47.473,0.247972,0.977122,282.491394,0.012301,0.008586,0.978827,0.124747,0.006370,9.814021,0.002254,-0.000599,-0.000883,0.332081,-0.629375,-1.205188,100340.0000
1764073547576969796,2025-11-25 17:55:47.573,0.250845,0.976523,282.490318,0.012288,0.008888,0.979347,0.164124,0.034599,9.786960,0.005710,0.001338,0.005393,0.331577,-0.631796,-1.206588,100345.0000
1764073547676163925,2025-11-25 17:55:47.673,0.255845,0.983717,282.485123,0.012645,0.009559,0.979357,0.110622,0.183691,9.790967,0.000749,-0.001062,0.002886,0.333484,-0.633718,-1.207550,100341.0000
1764073547777588295,2025-11-25 17:55:47.774,0.263379,0.984628,282.487000,0.013013,0.010038,0.979148,0.121584,0.150483,9.788524,0.002808,-0.001634,-0.005307,0.330593,-0.633741,-1.207988,100343.0000
1764073547875684629,2025-11-25 17:55:47.873,0.262067,0.982907,282.492592,0.013418,0.010041,0.978676,0.174238,0.011544,9.804764,0.001185,-0.003091,-0.002814,0.330135,-0.632270,-1.206078,100339.0000
1764073547976209980,2025-11-25 17:55:47.973,0.255028,0.968235,282.497665,0.013164,0.010381,0.978250,0.163065,0.094109,9.766922,0.002219,0.002381,0.004081,0.333036,-0.631749,-1.204684,100337.0000
1764073548075695517,2025-11-25 17:55:48.073,0.244392,0.954374,282.506699,0.012494,0.009778,0.977760,0.099065,0.178348,9.766860,0.000148,0.004609,-0.001793,0.333997,-0.630332,-1.205683,100339.0000
1764073548175525425,2025-11-25 17:55:48.173,0.238940,0.949269,282.508781,0.011335,0.008323,0.977573,0.097823,0.045728,9.790404,0.002462,-0.000216,-0.001811,0.332517,-0.632320,-1.209002,100339.0000
1764073548276321814,2025-11-25 17:55:48.273,0.244207,0.957080,282.512779,0.010863,0.007668,0.978381,0.144216,-0.006085,9.804972,0.000711,-0.003908,-0.000293,0.333501,-0.632732,-1.206120,100339.0000
1764073548375348184,2025-11-25 17:55:48.372,0.264045,0.982298,282.512527,0.011012,0.008542,0.978888,0.098582,0.150457,9.775645,0.004329,-0.003953,0.003848,0.331563,-0.633717,-1.207040,100339.0000
1764073548476296758,2025-11-25 17:55:48.473,0.280723,1.015283,282.514465,0.012440,0.009695,0.979626,0.098012,0.156871,9.795228,0.002559,-0.008539,0.001466,0.332527,-0.632767,-1.207550,100342.0000
1764073548576327980,2025-11-25 17:55:48.573,0.296969,1.036297,282.518250,0.014660,0.010347,0.979676,0.183244,0.038320,9.806026,0.003573,-0.003962,0.000236,0.329669,-0.632231,-1.204145,100344.0000
1764073548676221202,2025-11-25 17:55:48.673,0.300002,1.028681,282.523186,0.015353,0.011206,0.978786,0.168000,0.078055,9.777407,-0.001948,0.006888,0.001611,0.333999,-0.630799,-1.205194,100337.0000
1764073548775908110,2025-11-25 17:55:48.773,0.288994,1.000707,282.528946,0.014761,0.011620,0.978180,0.108740,0.204844,9.761310,-0.000934,0.005616,0.001308,0.329160,-0.633250,-1.207012,100342.0000
1764073548875940221,2025-11-25 17:55:48.873,0.263828,0.968704,282.531677,0.012491,0.010826,0.978083,0.099599,0.105065,9.781230,-0.005619,0.002402,-0.000078,0.333966,-0.635129,-1.206572,100337.0000
1764073548976056980,2025-11-25 17:55:48.973,0.241134,0.948499,282.532242,0.010349,0.008807,0.978731,0.120455,-0.002019,9.806394,-0.000313,0.000419,0.000632,0.333491,-0.632285,-1.207572,100341.0000
1764073549075714998,2025-11-25 17:55:49.072,0.222030,0.955357,282.535896,0.009494,0.008041,0.978845,0.082121,0.109364,9.766613,-0.004038,-0.000544,-0.001487,0.332036,-0.632322,-1.208995,100342.0000
1764073549176266850,2025-11-25 17:55:49.173,0.222649,0.981166,282.541168,0.010196,0.007627,0.978886,0.086314,0.140513,9.777982,0.004819,-0.000878,-0.001994,0.333015,-0.631332,-1.207579,100343.0000
1764073549279704183,2025-11-25 17:55:49.276,0.241451,1.011495,282.548553,0.012520,0.007214,0.978466,0.141140,0.025919,9.807684,0.002638,-0.006168,-0.005192,0.330151,-0.631284,-1.204648,100332.0000
1764073549377320998,2025-11-25 17:55:49.374,0.269668,1.031255,282.550652,0.014087,0.007916,0.977945,0.165463,0.043578,9.787313,0.011642,-0.000790,0.002804,0.333983,-0.633198,-1.205639,100341.0000
1764073549476810850,2025-11-25 17:55:49.473,0.300480,1.030296,282.552841,0.013934,0.010215,0.978311,0.109345,0.192881,9.772703,0.004325,0.004802,0.004344,0.332532,-0.633224,-1.206580,100345.0000
1764073549575770368,2025-11-25 17:55:49.573,0.322987,1.021087,282.557610,0.013246,0.011617,0.979362,0.114843,0.147061,9.810391,0.005120,0.003162,-0.002179,0.332558,-0.630328,-1.205180,100340.0000
1764073549676036220,2025-11-25 17:55:49.673,0.321577,1.013009,282.562080,0.012194,0.012697,0.979475,0.137567,0.026544,9.826521,-0.001935,0.000021,-0.002149,0.333021,-0.633202,-1.205624,100341.0000
1764073549775540813,2025-11-25 17:55:49.773,0.293051,1.008912,282.568893,0.011718,0.012516,0.979391,0.143716,0.126789,9.794821,-0.000975,0.001367,0.007690,0.333012,-0.632755,-1.207076,100339.0000
1764073549875993239,2025-11-25 17:55:49.873,0.261936,1.017410,282.573120,0.012217,0.010426,0.978950,0.096322,0.184151,9.760407,-0.002663,0.000606,-0.001720,0.333986,-0.630362,-1.207126,100339.0000
1764073549976158609,2025-11-25 17:55:49.973,0.233125,1.019920,282.575104,0.013077,0.007195,0.978411,0.136462,0.035025,9.806080,-0.006550,0.002009,-0.002423,0.333970,-0.631348,-1.208556,100340.0000
1764073550075253053,2025-11-25 17:55:50.072,0.232929,1.017846,282.575401,0.013344,0.005871,0.978124,0.158886,-0.027839,9.784204,0.009435,-0.003484,0.000540,0.332536,-0.633214,-1.206099,100345.0000
1764073550176205016,2025-11-25 17:55:50.173,0.260307,1.010476,282.579170,0.012634,0.007057,0.977962,0.096942,0.147667,9.760996,0.001934,0.000650,0.004647,0.332047,-0.633237,-1.207054,100340.0000
1764073550276163664,2025-11-25 17:55:50.273,0.287217,1.003637,282.588272,0.012030,0.009288,0.978271,0.093572,0.186946,9.780912,0.007549,0.002191,-0.002309,0.333494,-0.631808,-1.207579,100340.0000
1764073550376032275,2025-11-25 17:55:50.373,0.304630,1.000426,282.590889,0.011189,0.011106,0.978719,0.140002,0.062315,9.802113,-0.002231,0.004964,-0.004158,0.330610,-0.632755,-1.206559,100338.0000
1764073550475690998,2025-11-25 17:55:50.473,0.310840,1.014510,282.593475,0.011330,0.011082,0.978790,0.136679,0.065220,9.792205,0.004986,-0.001133,0.004569,0.333504,-0.631310,-1.206624,100337.0000
1764073550576438516,2025-11-25 17:55:50.573,0.308310,1.030477,282.595573,0.012081,0.010042,0.978819,0.097396,0.174656,9.775078,-0.001289,-0.001273,0.000510,0.332058,-0.634152,-1.205114,100336.0000
1764073550676615664,2025-11-25 17:55:50.673,0.307451,1.045573,282.603195,0.013064,0.009410,0.979142,0.120299,0.103330,9.807409,0.006618,-0.004084,-0.002382,0.332060,-0.632261,-1.206106,100340.0000
1764073550776248479,2025-11-25 17:55:50.773,0.308086,1.058959,282.610649,0.012983,0.009406,0.979463,0.164992,0.006900,9.828845,-0.000985,-0.001488,-0.000885,0.332044,-0.632302,-1.208032,100333.0000
1764073550877427997,2025-11-25 17:55:50.873,0.303951,1.055771,282.616524,0.013760,0.010016,0.978880,0.132366,0.129604,9.780262,-0.000667,0.002257,0.003567,0.332050,-0.634172,-1.206077,100335.0000
1764073550976453664,2025-11-25 17:55:50.973,0.292815,1.045601,282.623940,0.013254,0.010509,0.978633,0.092252,0.181238,9.773323,-0.005398,0.000631,-0.001227,0.331073,-0.634685,-1.207500,100340.0000
1764073551075584571,2025-11-25 17:55:51.073,0.277704,1.025489,282.632263,0.013163,0.009713,0.978268,0.131713,0.026985,9.805964,0.005092,0.000281,-0.003694,0.333514,-0.632224,-1.204684,100338.0000
1764073551175821756,2025-11-25 17:55:51.173,0.257846,1.008706,282.639053,0.011908,0.008790,0.978184,0.150439,0.028561,9.778742,-0.003673,0.003357,-0.000037,0.334454,-0.632281,-1.207586,100338.0000
1764073551276292979,2025-11-25 17:55:51.273,0.255286,1.004290,282.641434,0.010866,0.008206,0.978295,0.077901,0.160254,9.763170,-0.000637,-0.000975,0.003163,0.334931,-0.632289,-1.208075,100337.0000
1764073551376720923,2025-11-25 17:55:51.373,0.262500,1.013782,282.643784,0.010663,0.007686,0.978569,0.087100,0.091367,9.787213,-0.001457,-0.004949,-0.001473,0.333499,-0.629907,-1.208090,100341.0000
1764073551476812052,2025-11-25 17:55:51.473,0.276597,1.034781,282.651810,0.011744,0.008363,0.978671,0.151797,0.009613,9.800594,0.004453,-0.005254,-0.003155,0.332533,-0.633692,-1.206091,100332.0000
1764073551576159978,2025-11-25 17:55:51.573,0.298557,1.053652,282.664917,0.012857,0.009290,0.978148,0.138307,0.119763,9.770870,0.006448,-0.000673,-0.000839,0.333964,-0.633249,-1.208045,100341.0000
1764073551676196367,2025-11-25 17:55:51.673,0.315366,1.065729,282.676971,0.013660,0.009439,0.978472,0.087529,0.178996,9.777585,-0.000108,-0.000862,-0.005026,0.333491,-0.632285,-1.207572,100336.0000
1764073551775996182,2025-11-25 17:55:51.773,0.333439,1.068025,282.684250,0.013368,0.009156,0.978602,0.148546,0.041967,9.791709,0.009303,-0.002794,-0.002814,0.332527,-0.632767,-1.207550,100337.0000
1764073551875720108,2025-11-25 17:55:51.873,0.349112,1.060990,282.686195,0.013114,0.009791,0.978779,0.147000,0.081059,9.785950,0.005746,0.002681,0.004159,0.332035,-0.635625,-1.207017,100345.0000
1764073551976376626,2025-11-25 17:55:51.973,0.356084,1.053877,282.685379,0.012326,0.011090,0.978871,0.105441,0.215544,9.774429,0.007668,0.000435,0.004547,0.333026,-0.633659,-1.204654,100339.0000
1764073552075791126,2025-11-25 17:55:52.073,0.349351,1.053685,282.692856,0.012008,0.011665,0.979069,0.137298,0.089180,9.810417,-0.005486,0.003307,-0.003144,0.332529,-0.633702,-1.206573,100338.0000
1764073552178019848,2025-11-25 17:55:52.173,0.333483,1.053583,282.704689,0.012452,0.011822,0.979386,0.161299,0.021695,9.808092,-0.000659,-0.002849,0.001162,0.332531,-0.629454,-1.209046,100341.0000
1764073552276139959,2025-11-25 17:55:52.273,0.297952,1.058327,282.721260,0.012443,0.011204,0.979368,0.121700,0.168731,9.782028,-0.007869,0.000378,-0.001599,0.332531,-0.632757,-1.207069,100336.0000
1764073552376684607,2025-11-25 17:55:52.373,0.259816,1.060796,282.733719,0.012586,0.009457,0.979666,0.107536,0.109699,9.791248,-0.003025,0.000199,-0.005269,0.333497,-0.632743,-1.206602,100337.0000
1764073552476526552,2025-11-25 17:55:52.473,0.235132,1.057725,282.735390,0.012924,0.007447,0.979251,0.153008,-0.030409,9.807377,-0.004530,-0.000079,-0.001266,0.334923,-0.632309,-1.209037,100334.0000
1764073552576256793,2025-11-25 17:55:52.573,0.229047,1.052009,282.736168,0.012697,0.006880,0.978376,0.123748,0.080492,9.767523,0.000542,0.003377,0.004665,0.334451,-0.631346,-1.208563,100345.0000
1764073552676279996,2025-11-25 17:55:52.673,0.241647,1.043278,282.740639,0.011806,0.006969,0.977374,0.088617,0.153632,9.750854,0.008529,-0.000928,-0.003551,0.332530,-0.631345,-1.208053,100342.0000
1764073552776414774,2025-11-25 17:55:52.773,0.274668,1.042046,282.748528,0.011216,0.006987,0.976881,0.128029,0.030179,9.797216,0.008228,0.001897,-0.000155,0.333500,-0.631320,-1.207105,100341.0000
1764073552876363570,2025-11-25 17:55:52.873,0.318385,1.049209,282.757812,0.011005,0.008409,0.976948,0.123504,0.053139,9.769098,0.006736,0.002382,0.000926,0.335895,-0.631807,-1.208096,100336.0000
1764073552975924681,2025-11-25 17:55:52.973,0.363363,1.064608,282.769875,0.011226,0.010281,0.978048,0.092361,0.206683,9.759636,0.005728,-0.000045,0.001595,0.334472,-0.633175,-1.204683,100338.0000
1764073553075917440,2025-11-25 17:55:53.073,0.393067,1.088902,282.779114,0.012184,0.012145,0.979662,0.108624,0.146760,9.825520,0.001523,-0.004822,-0.005827,0.334949,-0.631770,-1.206156,100339.0000
1764073553176608459,2025-11-25 17:55:53.173,0.395999,1.114789,282.787323,0.013704,0.012718,0.980504,0.176076,0.051856,9.814722,0.000027,-0.002506,0.001528,0.334949,-0.633183,-1.205172,100340.0000
1764073553276364885,2025-11-25 17:55:53.273,0.372129,1.130730,282.792908,0.014927,0.012599,0.980167,0.147809,0.138261,9.785580,-0.004166,0.005741,0.002817,0.333971,-0.631816,-1.208068,100335.0000
1764073553377889922,2025-11-25 17:55:53.374,0.333416,1.129180,282.798935,0.015134,0.010713,0.979767,0.118690,0.162999,9.774866,-0.009630,0.001487,-0.003109,0.333484,-0.633718,-1.207550,100339.0000
1764073553476734440,2025-11-25 17:55:53.473,0.298214,1.102812,282.809273,0.014831,0.008103,0.978396,0.146937,-0.007667,9.800827,-0.003186,0.007243,-0.005657,0.335893,-0.634642,-1.206608,100341.0000
1764073553576306551,2025-11-25 17:55:53.573,0.282814,1.060881,282.821236,0.013385,0.006756,0.977204,0.143744,0.022211,9.764839,0.001655,0.008859,-0.000476,0.335403,-0.633252,-1.208548,100338.0000
1764073553676664792,2025-11-25 17:55:53.673,0.291864,1.019221,282.833214,0.011667,0.006934,0.977136,0.064695,0.177300,9.758670,0.005672,0.002385,0.000529,0.333495,-0.630863,-1.208075,100339.0000
1764073553776123310,2025-11-25 17:55:53.773,0.314435,0.997642,282.841072,0.009745,0.008054,0.977718,0.091706,0.099375,9.807611,0.001599,0.001980,-0.004213,0.336855,-0.632280,-1.208103,100338.0000
1764073553876592607,2025-11-25 17:55:53.873,0.339659,1.006149,282.851135,0.009412,0.010256,0.978629,0.137707,0.022492,9.803972,0.008745,-0.003771,-0.001042,0.335899,-0.634155,-1.206134,100336.0000
1764073553976548514,2025-11-25 17:55:53.973,0.353450,1.044181,282.863541,0.009857,0.011810,0.978889,0.108758,0.170979,9.755959,0.001694,-0.006244,-0.001510,0.332540,-0.630846,-1.207098,100329.0000
1764073554075531162,2025-11-25 17:55:54.072,0.346287,1.095432,282.879791,0.011395,0.011554,0.979059,0.109430,0.194326,9.776334,0.000076,-0.009046,-0.003587,0.336860,-0.633683,-1.206637,100345.0000
1764073554176240088,2025-11-25 17:55:54.173,0.322621,1.140980,282.896927,0.013893,0.010367,0.979477,0.163983,0.027184,9.800279,-0.005203,-0.005344,-0.006269,0.334447,-0.631356,-1.209045,100335.0000
1764073554276412662,2025-11-25 17:55:54.273,0.306787,1.166587,282.912193,0.015444,0.008450,0.979323,0.160517,0.034518,9.782652,-0.002013,-0.002725,0.001360,0.334447,-0.631356,-1.209045,100339.0000
1764073554376695995,2025-11-25 17:55:54.373,0.304044,1.166869,282.925369,0.015860,0.007753,0.979312,0.130921,0.170599,9.771186,0.000711,0.003900,-0.003232,0.336364,-0.632781,-1.209051,100339.0000
1764073554476788680,2025-11-25 17:55:54.473,0.321839,1.142632,282.933167,0.014726,0.007347,0.979159,0.135824,0.068380,9.793032,0.004524,0.006386,-0.002140,0.335414,-0.632755,-1.207593,100345.0000
1764073554576101551,2025-11-25 17:55:54.573,0.351792,1.107179,282.940681,0.013410,0.008718,0.978762,0.146130,0.021083,9.793637,0.003772,0.006025,-0.001239,0.335888,-0.633240,-1.208074,100339.0000
1764073554676630088,2025-11-25 17:55:54.673,0.377492,1.070651,282.949921,0.012372,0.010562,0.978291,0.102200,0.164220,9.761313,0.003627,0.005898,0.002637,0.336405,-0.630788,-1.205229,100336.0000
1764073554775939865,2025-11-25 17:55:54.773,0.380237,1.044193,282.965355,0.011468,0.012129,0.977825,0.080017,0.156120,9.775731,-0.002289,0.003372,-0.005230,0.338307,-0.632253,-1.207161,100335.0000
1764073554876078143,2025-11-25 17:55:54.873,0.376552,1.050633,282.981400,0.010446,0.011040,0.977101,0.143067,0.024093,9.800988,0.002254,-0.003199,-0.001485,0.336863,-0.630847,-1.208125,100342.0000
1764073554976338180,2025-11-25 17:55:54.973,0.359325,1.068778,283.001389,0.012678,0.010839,0.977813,0.140536,0.114359,9.771537,0.000251,0.000706,-0.002761,0.340232,-0.633657,-1.206205,100337.0000
1764073555075542106,2025-11-25 17:55:55.072,0.338717,1.086286,283.018867,0.012238,0.009764,0.977979,0.107795,0.173305,9.782704,-0.000061,-0.003463,-0.004429,0.338309,-0.629418,-1.208650,100342.0000
1764073555177657680,2025-11-25 17:55:55.173,0.320650,1.097613,283.032524,0.012522,0.008157,0.979018,0.132376,0.025365,9.793429,-0.008223,-0.000879,-0.004745,0.335408,-0.632297,-1.208563,100340.0000
1764073555276049995,2025-11-25 17:55:55.273,0.321969,1.113648,283.049545,0.012391,0.007847,0.979092,0.132855,0.055211,9.789702,0.002943,-0.002393,0.001749,0.337831,-0.630355,-1.207665,100341.0000
1764073555375998532,2025-11-25 17:55:55.373,0.332333,1.127940,283.067162,0.012369,0.008827,0.979826,0.106074,0.166485,9.785378,-0.000815,-0.000671,-0.001944,0.337343,-0.629432,-1.209117,100332.0000
1764073555476344828,2025-11-25 17:55:55.473,0.351000,1.140761,283.087395,0.013351,0.009074,0.979403,0.129139,0.091449,9.788869,-0.000742,-0.001507,-0.005383,0.335902,-0.631319,-1.207622,100344.0000
1764073555576314272,2025-11-25 17:55:55.573,0.365992,1.144520,283.106003,0.013983,0.009362,0.979103,0.160438,0.030315,9.797790,0.004534,0.000517,0.000920,0.338756,-0.631865,-1.211508,100331.0000
1764073555676533939,2025-11-25 17:55:55.673,0.384981,1.131045,283.122734,0.013815,0.009771,0.978347,0.151581,0.174100,9.787737,0.001073,0.003239,-0.001095,0.336855,-0.632280,-1.208103,100341.0000
1764073555776277161,2025-11-25 17:55:55.773,0.393724,1.107777,283.136223,0.013214,0.009893,0.977974,0.102338,0.147258,9.784803,-0.000455,0.004932,-0.003987,0.339747,-0.631312,-1.208160,100339.0000
1764073555876925457,2025-11-25 17:55:55.873,0.398038,1.084360,283.150589,0.011793,0.010143,0.978444,0.126974,-0.003074,9.794734,0.001717,0.004385,-0.002709,0.338796,-0.631286,-1.206702,100343.0000
1764073555976477420,2025-11-25 17:55:55.973,0.400086,1.074079,283.163864,0.011084,0.010886,0.978302,0.114441,0.116331,9.777102,0.000037,-0.004373,0.001767,0.337337,-0.632278,-1.208110,100336.0000
1764073556075944679,2025-11-25 17:55:56.072,0.391106,1.083184,283.182861,0.010286,0.010567,0.978669,0.074979,0.182911,9.780188,0.000240,-0.007648,-0.004418,0.337833,-0.632235,-1.206192,100339.0000
1764073556177957568,2025-11-25 17:55:56.173,0.372788,1.098658,283.202072,0.011649,0.010031,0.978851,0.146016,0.022395,9.799009,-0.003768,-0.008478,-0.005426,0.338800,-0.629863,-1.207205,100333.0000
1764073556276029827,2025-11-25 17:55:56.273,0.358169,1.116651,283.222946,0.012776,0.009206,0.978681,0.150824,0.040885,9.785825,-0.001522,-0.001611,-0.003700,0.336872,-0.628937,-1.208154,100337.0000
1764073556376612438,2025-11-25 17:55:56.373,0.350261,1.130764,283.246155,0.013425,0.008723,0.978295,0.129443,0.149604,9.760642,-0.000350,-0.003459,0.001039,0.335886,-0.631360,-1.209547,100343.0000
1764073556476413549,2025-11-25 17:55:56.473,0.353616,1.134374,283.264412,0.013539,0.008285,0.978600,0.120940,0.073976,9.787451,0.001056,0.001479,-0.005877,0.337344,-0.630845,-1.208132,100339.0000
1764073556576916790,2025-11-25 17:55:56.573,0.367938,1.128135,283.279259,0.013435,0.008466,0.978800,0.147436,0.007010,9.799888,0.003129,0.003500,-0.001481,0.339243,-0.631375,-1.211041,100345.0000
1764073556676647605,2025-11-25 17:55:56.673,0.383742,1.116741,283.294601,0.012641,0.009429,0.979249,0.113069,0.148806,9.776472,0.003288,-0.000821,0.000031,0.337342,-0.630378,-1.208621,100339.0000
1764073556775943623,2025-11-25 17:55:56.773,0.394184,1.107317,283.308472,0.012005,0.009581,0.978952,0.081532,0.154211,9.793075,0.003198,-0.001297,-0.003474,0.337845,-0.628434,-1.207213,100341.0000
1764073556876444383,2025-11-25 17:55:56.873,0.407891,1.105682,283.325714,0.011657,0.009720,0.979010,0.130734,0.013006,9.810629,0.006001,-0.004175,-0.003276,0.337824,-0.630375,-1.208628,100341.0000
1764073556976763642,2025-11-25 17:55:56.973,0.420146,1.112513,283.345505,0.011856,0.010494,0.978754,0.117372,0.092156,9.776630,0.005697,0.000590,-0.001777,0.339243,-0.632788,-1.210057,100339.0000
1764073557075513012,2025-11-25 17:55:57.073,0.419914,1.123533,283.367447,0.012494,0.011274,0.978187,0.102553,0.204550,9.755524,-0.000225,-0.002097,-0.004184,0.340223,-0.633210,-1.207657,100339.0000
1764073557176316716,2025-11-25 17:55:57.173,0.408872,1.126475,283.387672,0.013360,0.010425,0.978050,0.116009,0.064527,9.780252,-0.002442,-0.000687,-0.005240,0.339758,-0.629869,-1.207701,100339.0000
1764073557276331456,2025-11-25 17:55:57.273,0.391782,1.119708,283.405243,0.013791,0.009564,0.977904,0.154258,0.023909,9.777011,-0.002930,0.001447,-0.002346,0.341677,-0.631760,-1.207219,100341.0000
1764073557377127327,2025-11-25 17:55:57.373,0.381804,1.103500,283.422417,0.012757,0.008055,0.978121,0.103177,0.160892,9.770748,0.001123,0.004695,0.001440,0.339737,-0.631810,-1.209116,100345.0000
1764073557475635567,2025-11-25 17:55:57.473,0.386466,1.091841,283.440331,0.012036,0.007489,0.978599,0.115776,0.089645,9.802207,0.004287,0.001122,-0.008710,0.342155,-0.630823,-1.208203,100340.0000
1764073557576811345,2025-11-25 17:55:57.573,0.404967,1.089134,283.458977,0.011274,0.008054,0.979195,0.133931,0.005085,9.819899,-0.000733,-0.001521,-0.002818,0.341687,-0.627492,-1.208729,100339.0000
1764073557676225493,2025-11-25 17:55:57.673,0.428003,1.100361,283.477303,0.011134,0.009657,0.979515,0.106136,0.147840,9.782247,0.007532,-0.006634,0.002927,0.343590,-0.630370,-1.209676,100338.0000
1764073557775896938,2025-11-25 17:55:57.773,0.440905,1.120173,283.498787,0.012029,0.011095,0.979556,0.096348,0.172371,9.791517,0.001303,-0.003572,-0.008858,0.341666,-0.630846,-1.209159,100332.0000
1764073557875862141,2025-11-25 17:55:57.873,0.438809,1.135237,283.517464,0.013260,0.011411,0.979529,0.148017,0.035009,9.812752,0.005416,-0.004317,-0.002544,0.342638,-0.631289,-1.207721,100335.0000
1764073557976207678,2025-11-25 17:55:57.973,0.429353,1.135261,283.536987,0.013848,0.010681,0.978732,0.155028,0.102635,9.782635,0.000029,-0.001497,-0.000084,0.342159,-0.630813,-1.207722,100334.0000
1764073558076852400,2025-11-25 17:55:58.073,0.417654,1.132267,283.554527,0.013421,0.009610,0.978135,0.098838,0.179599,9.758050,-0.001030,-0.000531,0.000142,0.341651,-0.630887,-1.211084,100342.0000
1764073558178203623,2025-11-25 17:55:58.173,0.409033,1.120945,283.572777,0.012639,0.008556,0.977697,0.128720,0.056444,9.786531,-0.004894,0.003232,-0.005991,0.340214,-0.631818,-1.209604,100335.0000
1764073558276482215,2025-11-25 17:55:58.273,0.411243,1.107561,283.594971,0.012811,0.008628,0.977164,0.158543,0.020834,9.782877,0.004748,-0.001009,-0.002744,0.343619,-0.629821,-1.206313,100340.0000
1764073558376133919,2025-11-25 17:55:58.373,0.414383,1.097372,283.620361,0.012505,0.010584,0.976456,0.090143,0.177978,9.739010,0.002991,0.002517,-0.003284,0.344088,-0.628437,-1.208750,100337.0000
1764073558476287548,2025-11-25 17:55:58.473,0.405086,1.080493,283.641670,0.012665,0.010706,0.977661,0.112452,0.095576,9.784901,0.002411,0.004746,-0.004568,0.345057,-0.629357,-1.207305,100341.0000
1764073558576078493,2025-11-25 17:55:58.573,0.388907,1.068308,283.657677,0.012169,0.010748,0.978496,0.138345,0.028587,9.805005,-0.005344,-0.002682,0.001071,0.345045,-0.630333,-1.208253,100337.0000
1764073558676307400,2025-11-25 17:55:58.673,0.369265,1.067516,283.670349,0.011231,0.010720,0.978540,0.122408,0.143696,9.773338,-0.001477,-0.003026,0.003428,0.342627,-0.628962,-1.210646,100341.0000
1764073558776644326,2025-11-25 17:55:58.773,0.341113,1.078619,283.683983,0.010837,0.008702,0.979955,0.095305,0.089924,9.832753,-0.008933,-0.007015,-0.003279,0.345995,-0.628946,-1.210696,100341.0000
1764073558875844196,2025-11-25 17:55:58.873,0.343067,1.105128,283.691673,0.010965,0.005054,0.981802,0.132347,-0.041341,9.850142,0.007400,-0.005910,-0.000248,0.344543,-0.629919,-1.211142,100332.0000
1764073558976357511,2025-11-25 17:55:58.973,0.388079,1.147945,283.703964,0.011639,0.003032,0.982545,0.144809,-0.003862,9.819950,0.010847,-0.001798,0.002507,0.343109,-0.629427,-1.210165,100335.0000
1764073559075554400,2025-11-25 17:55:59.073,0.479861,1.188229,283.718597,0.013198,0.003720,0.981711,0.113831,0.161902,9.794342,0.017067,-0.007029,-0.002744,0.346011,-0.630318,-1.207786,100338.0000
1764073559176562196,2025-11-25 17:55:59.173,0.592549,1.201336,283.737030,0.016265,0.008920,0.979252,0.159203,0.088156,9.793588,0.022687,-0.000128,-0.002634,0.342636,-0.630821,-1.208210,100342.0000
1764073559276854066,2025-11-25 17:55:59.273,0.671716,1.173897,283.754089,0.016524,0.017108,0.975177,0.174843,0.149807,9.737581,0.001669,0.011998,-0.000322,0.344094,-0.632665,-1.205314,100342.0000
1764073559376243196,2025-11-25 17:55:59.373,0.661642,1.109913,283.772881,0.014828,0.021782,0.973645,0.095944,0.300977,9.724716,-0.005344,0.012967,0.000186,0.347467,-0.631694,-1.205379,100338.0000
1764073559476401974,2025-11-25 17:55:59.473,0.567730,1.042850,283.796341,0.011337,0.018581,0.975217,0.066150,0.154438,9.773295,-0.018878,0.008148,-0.006370,0.344574,-0.631250,-1.206306,100341.0000
1764073559576888437,2025-11-25 17:55:59.573,0.440910,0.997562,283.825516,0.009133,0.010459,0.978563,0.097616,-0.043381,9.805613,-0.021318,0.004338,-0.004340,0.346013,-0.629841,-1.207793,100335.0000
1764073559676634770,2025-11-25 17:55:59.673,0.342550,0.988550,283.853584,0.009060,0.003338,0.981278,0.105400,0.030820,9.818128,-0.012552,-0.001636,-0.002487,0.347455,-0.629367,-1.208303,100341.0000
1764073559776256899,2025-11-25 17:55:59.773,0.314500,1.010602,283.870461,0.010352,0.000150,0.982299,0.081003,0.081037,9.812522,0.002419,-0.003614,-0.006686,0.348421,-0.627939,-1.208821,100337.0000
1764073559876464085,2025-11-25 17:55:59.873,0.355206,1.050821,283.878754,0.011899,0.001998,0.981077,0.129650,-0.011044,9.830458,0.012365,-0.009139,-0.003526,0.344071,-0.630368,-1.209683,100337.0000
1764073559976844010,2025-11-25 17:55:59.973,0.430218,1.091960,283.885117,0.013799,0.007168,0.978754,0.176177,0.053705,9.785204,0.013439,-0.005776,0.000700,0.344082,-0.628924,-1.209224,100340.0000
1764073560075886047,2025-11-25 17:56:00.072,0.500931,1.117129,283.889641,0.014774,0.012722,0.976601,0.125061,0.242277,9.739303,0.015594,-0.005862,-0.000827,0.345048,-0.628910,-1.208757,100340.0000
1764073560176411029,2025-11-25 17:56:00.173,0.534073,1.118608,283.893097,0.014425,0.014779,0.975310,0.124964,0.146896,9.764106,-0.001651,-0.001215,-0.005579,0.345050,-0.630790,-1.207283,100343.0000
1764073560276083103,2025-11-25 17:56:00.273,0.515100,1.101324,283.901405,0.013412,0.014766,0.975598,0.148268,0.045037,9.778011,-0.003051,0.005470,0.000813,0.346978,-0.629359,-1.207815,100337.0000
1764073560376119566,2025-11-25 17:56:00.373,0.470711,1.085044,283.915619,0.010867,0.012422,0.976629,0.097550,0.185579,9.766241,-0.008773,0.002313,-0.000734,0.346961,-0.628932,-1.210229,100343.0000
1764073560476976825,2025-11-25 17:56:00.473,0.420409,1.089094,283.930794,0.009542,0.008454,0.978036,0.067882,0.101782,9.791870,-0.010552,-0.002612,-0.006031,0.346486,-0.628446,-1.209748,100339.0000
1764073560576655232,2025-11-25 17:56:00.573,0.394609,1.111542,283.946632,0.009623,0.004022,0.979975,0.108623,-0.063264,9.823237,0.000737,-0.007279,-0.003961,0.344568,-0.627967,-1.209245,100345.0000
1764073560676600454,2025-11-25 17:56:00.673,0.425576,1.150776,283.957985,0.010462,0.003015,0.981728,0.122111,0.058849,9.826854,0.007949,-0.004591,0.000900,0.345044,-0.628920,-1.209238,100335.0000
1764073560776367584,2025-11-25 17:56:00.773,0.496247,1.192529,283.970596,0.012241,0.005094,0.982356,0.097230,0.148976,9.815366,0.014796,-0.007471,-0.002894,0.348449,-0.626923,-1.205947,100339.0000
1764073560875987010,2025-11-25 17:56:00.873,0.575703,1.221226,283.986855,0.015524,0.010192,0.981618,0.165405,0.073586,9.822543,0.014368,-0.003933,-0.000883,0.346975,-0.629836,-1.207808,100332.0000
1764073560976647584,2025-11-25 17:56:00.973,0.631882,1.214626,284.002426,0.017860,0.015180,0.979323,0.206642,0.146160,9.771544,0.001831,0.008800,-0.002525,0.345527,-0.631743,-1.207276,100339.0000
1764073561075665750,2025-11-25 17:56:01.073,0.622784,1.156548,284.015297,0.018252,0.018046,0.977298,0.136747,0.246538,9.756508,-0.004443,0.010387,-0.000135,0.346474,-0.633192,-1.208230,100341.0000
1764073561178160862,2025-11-25 17:56:01.173,0.551430,1.059872,284.030533,0.016195,0.015807,0.976971,0.136760,0.109974,9.783230,-0.013596,0.017122,-0.000450,0.346975,-0.630781,-1.207312,100347.0000
1764073561276429787,2025-11-25 17:56:01.273,0.459796,0.963167,284.044701,0.011370,0.009672,0.977515,0.116658,-0.032380,9.800447,-0.009786,0.016002,0.001437,0.349383,-0.627935,-1.208835,100339.0000
1764073561376354732,2025-11-25 17:56:01.373,0.389624,0.912998,284.056480,0.006726,0.004632,0.978703,0.029470,0.090710,9.780511,-0.011827,0.004873,0.001047,0.348416,-0.626537,-1.210287,100343.0000
1764073561476817565,2025-11-25 17:56:01.473,0.378582,0.927755,284.065086,0.005113,0.002513,0.978616,0.031550,0.067634,9.789048,0.007051,-0.010101,-0.000075,0.348406,-0.627035,-1.211242,100335.0000
1764073561576321269,2025-11-25 17:56:01.573,0.419402,0.998796,284.069489,0.006814,0.003676,0.977424,0.109656,-0.035144,9.793079,0.008567,-0.013555,0.001218,0.350826,-0.627928,-1.208857,100338.0000
1764073561677037028,2025-11-25 17:56:01.673,0.481284,1.094099,284.068848,0.009990,0.007692,0.975701,0.124210,0.133126,9.740958,0.014285,-0.018017,0.006059,0.347450,-0.626552,-1.210754,100338.0000
1764073561776031787,2025-11-25 17:56:01.773,0.539630,1.184383,284.070663,0.013611,0.011563,0.976286,0.127941,0.209812,9.769274,0.005755,-0.012476,-0.004474,0.347440,-0.630820,-1.209244,100340.0000
1764073561876007602,2025-11-25 17:56:01.873,0.578208,1.245194,284.080482,0.016272,0.013175,0.978160,0.181350,0.065205,9.808870,0.005682,-0.006853,-0.003136,0.346995,-0.627427,-1.206881,100342.0000
1764073561976489454,2025-11-25 17:56:01.973,0.582484,1.259845,284.096008,0.017423,0.012875,0.980416,0.178869,0.083096,9.805812,0.000255,0.000407,-0.001685,0.345998,-0.628936,-1.210215,100331.0000
1764073562075663768,2025-11-25 17:56:02.072,0.567487,1.230924,284.107910,0.016693,0.011651,0.981442,0.113809,0.190421,9.794340,-0.002590,0.008505,-0.001482,0.345998,-0.631294,-1.208734,100339.0000
1764073562176234991,2025-11-25 17:56:02.173,0.544928,1.171287,284.117088,0.015382,0.009778,0.980692,0.137211,0.072342,9.808365,-0.004377,0.011006,-0.004002,0.349881,-0.628360,-1.206428,100339.0000
1764073562275957250,2025-11-25 17:56:02.273,0.524510,1.113603,284.121719,0.013185,0.008273,0.979562,0.126603,0.009986,9.793138,-0.004757,0.010990,0.001731,0.348400,-0.631293,-1.209251,100340.0000
1764073562376523398,2025-11-25 17:56:02.373,0.516021,1.060775,284.128822,0.011209,0.008504,0.978549,0.086092,0.162942,9.754115,0.000623,0.005459,0.001162,0.350819,-0.629362,-1.208835,100337.0000
1764073562476572805,2025-11-25 17:56:02.473,0.520971,1.028904,284.142212,0.009381,0.009089,0.977856,0.078729,0.105803,9.786038,-0.002997,0.006929,-0.008800,0.348413,-0.630318,-1.208303,100339.0000
1764073562576425750,2025-11-25 17:56:02.573,0.523269,1.026773,284.157333,0.009090,0.009776,0.978042,0.138022,0.027528,9.803056,0.003999,-0.004823,-0.002962,0.348417,-0.627950,-1.209302,100339.0000
1764073562676784249,2025-11-25 17:56:02.673,0.520641,1.054935,284.171631,0.009171,0.010550,0.977665,0.086015,0.152146,9.771294,0.000778,-0.008247,-0.000204,0.350349,-0.627921,-1.208368,100330.0000
1764073562776259972,2025-11-25 17:56:02.773,0.509949,1.104830,284.178650,0.010405,0.010386,0.977481,0.119515,0.163219,9.774694,-0.001391,-0.010745,-0.002087,0.349842,-0.628462,-1.211242,100340.0000
1764073562876127768,2025-11-25 17:56:02.873,0.494397,1.154473,284.184761,0.012890,0.009101,0.977623,0.180317,0.019680,9.795463,-0.004650,-0.007739,-0.002556,0.347943,-0.627931,-1.208332,100341.0000
1764073562976918120,2025-11-25 17:56:02.973,0.486192,1.191123,284.189964,0.014952,0.009190,0.977748,0.166750,0.044121,9.779259,0.005144,-0.004638,0.005004,0.346502,-0.627460,-1.208318,100332.0000
1764073563075574009,2025-11-25 17:56:03.072,0.486227,1.189899,284.195587,0.016655,0.008253,0.978275,0.144473,0.126424,9.770980,-0.004125,0.000647,-0.002229,0.348399,-0.629881,-1.210236,100337.0000
1764073563175934768,2025-11-25 17:56:03.173,0.493793,1.158558,284.207176,0.015690,0.008759,0.979089,0.140319,0.097495,9.820240,0.006413,0.005246,-0.002818,0.348422,-0.626994,-1.209317,100339.0000
1764073563276494101,2025-11-25 17:56:03.273,0.505435,1.111802,284.224518,0.013547,0.009169,0.979602,0.140438,0.022046,9.802493,0.003810,0.011479,0.002112,0.349388,-0.628393,-1.207865,100341.0000
1764073563376119731,2025-11-25 17:56:03.373,0.521613,1.072238,284.239708,0.010222,0.009257,0.979245,0.080850,0.155055,9.755729,0.005085,0.001171,-0.000322,0.350331,-0.628439,-1.210286,100347.0000
1764073563476858564,2025-11-25 17:56:03.473,0.529791,1.069883,284.255074,0.008674,0.009617,0.979036,0.066135,0.124956,9.799463,0.001741,-0.006250,-0.005012,0.351764,-0.629876,-1.210767,100345.0000
1764073563576240879,2025-11-25 17:56:03.573,0.542979,1.099517,284.268585,0.008860,0.008575,0.979421,0.125236,0.008589,9.813318,0.005962,-0.012656,-0.001312,0.350348,-0.628866,-1.207872,100344.0000
1764073563676123175,2025-11-25 17:56:03.673,0.566152,1.155076,284.277069,0.010981,0.007337,0.980433,0.110988,0.096573,9.793691,0.007815,-0.010560,0.001058,0.350357,-0.627900,-1.207405,100347.0000
1764073563776438138,2025-11-25 17:56:03.773,0.603491,1.203391,284.285667,0.014522,0.007542,0.980630,0.154338,0.134678,9.795225,0.007044,-0.008064,-0.001314,0.350341,-0.630299,-1.207850,100337.0000
1764073563875993304,2025-11-25 17:56:03.873,0.650097,1.214574,284.301842,0.017135,0.009158,0.979845,0.195467,0.039819,9.808321,0.011721,-0.001021,-0.003145,0.348882,-0.628933,-1.210739,100341.0000
1764073563976582971,2025-11-25 17:56:03.973,0.678660,1.182802,284.319016,0.017256,0.013729,0.977074,0.183859,0.140163,9.766756,0.002423,0.009044,-0.000833,0.349388,-0.629337,-1.207369,100346.0000
1764073564075677989,2025-11-25 17:56:04.072,0.658467,1.113388,284.341171,0.015565,0.018104,0.974654,0.104014,0.264810,9.732855,-0.008354,0.009368,-0.003207,0.351793,-0.629327,-1.207405,100340.0000
1764073564176910156,2025-11-25 17:56:04.173,0.574986,1.032651,284.360268,0.011790,0.017066,0.974507,0.099301,0.110526,9.766850,-0.020125,0.012523,-0.002971,0.352759,-0.627900,-1.207922,100336.0000
1764073564276753489,2025-11-25 17:56:04.273,0.460505,0.986312,284.373100,0.008982,0.010363,0.977625,0.096661,-0.015529,9.807845,-0.014994,0.003109,0.000507,0.350319,-0.627057,-1.212715,100335.0000
1764073564376353045,2025-11-25 17:56:04.373,0.378428,0.988113,284.385704,0.007097,0.001766,0.981978,0.063812,0.038482,9.812702,-0.005846,-0.003543,0.000236,0.352743,-0.626528,-1.210832,100337.0000
1764073564476455174,2025-11-25 17:56:04.473,0.390861,1.034141,284.393440,0.008751,-0.003590,0.983629,0.093484,0.008280,9.829906,0.016954,-0.012066,-0.002307,0.353206,-0.627044,-1.212758,100343.0000
1764073564576289785,2025-11-25 17:56:04.573,0.494083,1.100575,284.394501,0.011660,-0.000954,0.981573,0.167312,-0.025735,9.820388,0.025813,-0.013320,-0.000930,0.350817,-0.627481,-1.210308,100344.0000
1764073564676150748,2025-11-25 17:56:04.673,0.635611,1.156214,284.400757,0.014620,0.007858,0.977653,0.156659,0.153874,9.732840,0.025667,-0.006305,-0.000106,0.351796,-0.627904,-1.207908,100339.0000
1764073564775795841,2025-11-25 17:56:04.773,0.755008,1.186433,284.413025,0.015173,0.015772,0.974711,0.127203,0.276286,9.721043,0.017851,-0.001486,-0.003676,0.350841,-0.626475,-1.207916,100340.0000
1764073564876598859,2025-11-25 17:56:04.873,0.798395,1.191143,284.431664,0.014382,0.019995,0.974203,0.139570,0.152107,9.746278,-0.007105,0.002448,-0.004754,0.350828,-0.629809,-1.207383,100341.0000
1764073564976271730,2025-11-25 17:56:04.973,0.755506,1.170233,284.451347,0.013780,0.019716,0.975490,0.144884,0.120988,9.761461,-0.012776,0.007534,-0.000473,0.352755,-0.629323,-1.207419,100344.0000
1764073565075979896,2025-11-25 17:56:05.073,0.651145,1.146520,284.469337,0.012363,0.015933,0.978355,0.098689,0.165193,9.788746,-0.021042,0.002557,-0.001848,0.353239,-0.628843,-1.207433,100341.0000
1764073565175624989,2025-11-25 17:56:05.173,0.525689,1.123618,284.487541,0.012116,0.008675,0.981359,0.121924,0.031208,9.825824,-0.017215,0.005085,-0.002175,0.354182,-0.626531,-1.211335,100343.0000
1764073565276431692,2025-11-25 17:56:05.273,0.440405,1.106494,284.505280,0.012203,0.001887,0.982521,0.146624,-0.086875,9.851852,-0.007176,0.000844,-0.003811,0.351296,-0.625599,-1.211788,100341.0000
1764073565377541507,2025-11-25 17:56:05.374,0.431235,1.093704,284.515022,0.012139,-0.000109,0.981801,0.133355,0.052457,9.788894,0.007232,0.000667,0.002363,0.352738,-0.627483,-1.210818,100341.0000
1764073565476571989,2025-11-25 17:56:05.473,0.486890,1.091975,284.524513,0.012548,0.003057,0.979721,0.102780,0.103749,9.773886,0.011544,0.002944,-0.000798,0.353693,-0.626554,-1.212291,100332.0000
1764073565576079340,2025-11-25 17:56:05.573,0.569068,1.093819,284.537117,0.012369,0.008209,0.977663,0.146944,0.035337,9.796409,0.016194,-0.003210,-0.002049,0.353711,-0.628394,-1.208892,100344.0000
1764073565676336803,2025-11-25 17:56:05.673,0.646055,1.098794,284.548920,0.012421,0.012485,0.977056,0.151190,0.140656,9.761321,0.004685,0.001214,0.000289,0.354674,-0.627444,-1.209402,100345.0000
1764073565775747211,2025-11-25 17:56:05.773,0.681709,1.098623,284.565514,0.012652,0.014406,0.977303,0.089117,0.240618,9.773532,0.006820,0.000068,-0.002382,0.353718,-0.629318,-1.207433,100341.0000
1764073565876037155,2025-11-25 17:56:05.873,0.675585,1.098626,284.586525,0.012636,0.013812,0.977805,0.129056,0.094589,9.792722,-0.006001,-0.002510,-0.005041,0.354188,-0.630759,-1.207900,100350.0000
1764073565976122414,2025-11-25 17:56:05.973,0.648252,1.095120,284.602715,0.012501,0.011759,0.978502,0.140736,0.048483,9.792873,-0.003319,-0.002371,0.000769,0.354198,-0.627904,-1.208425,100335.0000
1764073566075583192,2025-11-25 17:56:06.073,0.615288,1.099134,284.616035,0.011771,0.009589,0.979118,0.091491,0.152787,9.762565,-0.006899,-0.002876,0.001788,0.353255,-0.626444,-1.206989,100341.0000
1764073566176246247,2025-11-25 17:56:06.173,0.585461,1.106242,284.629494,0.011493,0.008027,0.979201,0.106586,0.070185,9.794200,-0.000985,-0.002240,-0.003373,0.351782,-0.627000,-1.210329,100337.0000
1764073566276539599,2025-11-25 17:56:06.273,0.577024,1.122706,284.643341,0.012364,0.007869,0.978698,0.136431,-0.000531,9.793528,0.001627,-0.001915,-0.002947,0.352743,-0.626528,-1.210832,100332.0000
1764073566376551636,2025-11-25 17:56:06.373,0.578674,1.138416,284.660942,0.012960,0.009101,0.978142,0.104115,0.153334,9.759803,-0.000177,0.001820,-0.000221,0.353702,-0.627946,-1.210343,100343.0000
1764073566476067710,2025-11-25 17:56:06.473,0.585913,1.142292,284.680992,0.013534,0.009543,0.978025,0.104896,0.150870,9.773201,0.005155,-0.001674,-0.004709,0.355153,-0.627919,-1.209402,100340.0000
1764073566576350562,2025-11-25 17:56:06.573,0.596544,1.135446,284.698799,0.013178,0.008961,0.978307,0.143917,0.001431,9.796080,0.002190,0.000683,-0.004728,0.355149,-0.627930,-1.209883,100338.0000
1764073566676369377,2025-11-25 17:56:06.673,0.606390,1.122379,284.716469,0.012791,0.008972,0.979337,0.134684,0.096840,9.794788,0.004964,0.001076,-0.001380,0.355151,-0.627452,-1.209890,100339.0000
1764073566776403080,2025-11-25 17:56:06.773,0.614997,1.110896,284.735619,0.011916,0.008761,0.979966,0.086341,0.162028,9.778130,-0.000101,0.001869,-0.003039,0.355137,-0.627960,-1.211327,100340.0000
1764073566876539747,2025-11-25 17:56:06.873,0.628441,1.107467,284.749451,0.012337,0.009368,0.979870,0.155759,0.035386,9.822256,0.002235,-0.002367,-0.003936,0.358526,-0.628362,-1.208482,100332.0000
1764073566976281080,2025-11-25 17:56:06.973,0.641629,1.104843,284.761597,0.012342,0.009652,0.978920,0.134979,0.070871,9.781634,0.003080,0.000493,-0.000209,0.355630,-0.627927,-1.209890,100343.0000
1764073567075830414,2025-11-25 17:56:07.073,0.644724,1.107401,284.775322,0.013194,0.011045,0.978161,0.116639,0.204307,9.756504,-0.003291,0.001914,-0.002275,0.356607,-0.626470,-1.208964,100334.0000
1764073567177917654,2025-11-25 17:56:07.173,0.642779,1.103385,284.791267,0.012780,0.010997,0.977170,0.124243,0.065085,9.788522,0.005063,0.000842,-0.004701,0.358032,-0.627927,-1.210407,100341.0000
1764073567276634876,2025-11-25 17:56:07.273,0.631483,1.094114,284.813370,0.012038,0.009750,0.977846,0.154378,-0.000093,9.778097,0.001405,0.002242,-0.003378,0.356609,-0.624579,-1.209956,100338.0000
1764073567376640802,2025-11-25 17:56:07.373,0.622216,1.089531,284.836578,0.011601,0.008944,0.978110,0.092585,0.153335,9.755377,0.001458,0.000020,-0.003384,0.358981,-0.627486,-1.212354,100342.0000
1764073567476486191,2025-11-25 17:56:07.473,0.619554,1.089909,284.857071,0.011216,0.008097,0.979146,0.093085,0.092839,9.787269,0.003048,-0.002093,-0.003441,0.355630,-0.625570,-1.211371,100337.0000
1764073567577230358,2025-11-25 17:56:07.573,0.633116,1.103964,284.874718,0.011119,0.007675,0.979409,0.159070,0.004879,9.807417,0.004704,-0.004229,-0.005024,0.357566,-0.626476,-1.209459,100341.0000
1764073567676048024,2025-11-25 17:56:07.673,0.655328,1.126102,284.888504,0.011999,0.009088,0.979002,0.120380,0.125549,9.773842,0.009769,-0.003048,0.001627,0.358528,-0.626471,-1.209474,100342.0000
1764073567776273376,2025-11-25 17:56:07.773,0.672871,1.146236,284.899841,0.013057,0.011189,0.978244,0.108041,0.185387,9.776104,-0.004416,-0.001030,-0.005993,0.356605,-0.626947,-1.208956,100336.0000
1764073567877082765,2025-11-25 17:56:07.873,0.666318,1.149949,284.919678,0.013916,0.012282,0.977869,0.177207,0.041586,9.818685,0.001102,-0.000524,-0.002850,0.355156,-0.626497,-1.209905,100332.0000
1764073567977760339,2025-11-25 17:56:07.973,0.641253,1.141884,284.945152,0.014352,0.011641,0.978507,0.136434,0.094093,9.791854,-0.002876,0.002051,-0.001443,0.359003,-0.626957,-1.209955,100342.0000
1764073568075805320,2025-11-25 17:56:08.072,0.616564,1.125827,284.971603,0.013292,0.009244,0.979369,0.094090,0.155597,9.792674,0.002754,-0.001004,-0.004670,0.359005,-0.625067,-1.210947,100339.0000
1764073568176002154,2025-11-25 17:56:08.173,0.600796,1.106114,284.994316,0.012593,0.006435,0.979921,0.123869,0.023047,9.825520,-0.001568,0.002620,-0.004185,0.358025,-0.627002,-1.211866,100341.0000
1764073568278163876,2025-11-25 17:56:08.274,0.615979,1.095499,285.006775,0.011696,0.006039,0.979567,0.143540,0.008831,9.794437,0.003264,-0.000252,0.001441,0.359500,-0.625969,-1.208532,100332.0000
1764073568376450728,2025-11-25 17:56:08.373,0.655464,1.095412,285.014793,0.011481,0.007205,0.978605,0.089297,0.189500,9.766882,0.010481,-0.001480,0.000916,0.358054,-0.625040,-1.209488,100337.0000
1764073568476456839,2025-11-25 17:56:08.473,0.696418,1.103230,285.024162,0.011961,0.010508,0.977235,0.109994,0.118974,9.775120,0.009623,-0.003687,-0.005069,0.357080,-0.627433,-1.209438,100339.0000
1764073568576095820,2025-11-25 17:56:08.573,0.715179,1.109497,285.038765,0.012047,0.013818,0.975829,0.144519,0.091498,9.767238,-0.000672,-0.000755,-0.001985,0.359480,-0.629323,-1.208963,100340.0000
1764073568676454987,2025-11-25 17:56:08.673,0.693032,1.116272,285.068115,0.011882,0.015435,0.975624,0.115342,0.217781,9.746642,-0.004894,-0.004208,-0.001741,0.360922,-0.626491,-1.210953,100336.0000
1764073568776022190,2025-11-25 17:56:08.773,0.635803,1.124810,285.103256,0.011768,0.012810,0.977270,0.098609,0.147853,9.770533,-0.011170,-0.002651,-0.008224,0.358031,-0.626514,-1.211392,100336.0000
1764073568876662505,2025-11-25 17:56:08.873,0.576941,1.137095,285.134567,0.011940,0.007600,0.980240,0.157153,-0.036300,9.829833,-0.009244,-0.004701,-0.005370,0.362367,-0.626952,-1.210486,100337.0000
1764073568977390672,2025-11-25 17:56:08.973,0.558210,1.151563,285.154144,0.012387,0.002813,0.982572,0.126825,0.034910,9.829072,0.007935,-0.004569,0.004632,0.362373,-0.626464,-1.210012,100333.0000
1764073569075811116,2025-11-25 17:56:09.072,0.599090,1.166603,285.159592,0.012852,0.002232,0.982985,0.098881,0.100061,9.828221,0.008404,-0.006385,0.000813,0.362848,-0.626950,-1.210493,100339.0000
1764073569176758931,2025-11-25 17:56:09.173,0.679242,1.183366,285.167336,0.013613,0.006981,0.980357,0.139514,0.046112,9.801073,0.016009,-0.003213,-0.001507,0.358056,-0.624563,-1.209496,100337.0000
1764073569276838357,2025-11-25 17:56:09.273,0.741327,1.186751,285.187393,0.013887,0.013864,0.976592,0.155101,0.121547,9.740994,0.004940,0.000798,-0.002585,0.362377,-0.628812,-1.208050,100341.0000
1764073569376115301,2025-11-25 17:56:09.373,0.749813,1.173397,285.216286,0.014368,0.017366,0.975188,0.137478,0.244553,9.739956,-0.003272,0.004888,-0.006241,0.360466,-0.626900,-1.207569,100341.0000
1764073569476321875,2025-11-25 17:56:09.473,0.711564,1.135924,285.252960,0.015055,0.014199,0.976905,0.145729,0.076701,9.800385,-0.004160,0.004948,-0.005978,0.361875,-0.628398,-1.210938,100343.0000
1764073569576477968,2025-11-25 17:56:09.573,0.665164,1.081286,285.281281,0.013303,0.007811,0.979941,0.134736,-0.043953,9.812434,-0.008723,0.009360,-0.001027,0.361415,-0.626458,-1.209516,100339.0000
1764073569676695579,2025-11-25 17:56:09.673,0.650429,1.034488,285.294548,0.010226,0.004637,0.981003,0.071716,0.120741,9.788788,0.002365,0.007788,0.000071,0.363344,-0.624082,-1.210544,100339.0000
1764073569775872467,2025-11-25 17:56:09.773,0.670322,1.026267,285.307045,0.007872,0.006011,0.979923,0.059808,0.106335,9.787493,0.010405,-0.005298,-0.005298,0.362862,-0.626441,-1.209056,100345.0000
1764073569876969967,2025-11-25 17:56:09.873,0.699280,1.064159,285.325989,0.008165,0.010187,0.976909,0.116844,0.032628,9.772787,0.002826,-0.005610,-0.004859,0.363841,-0.623093,-1.209122,100343.0000
1764073569976476393,2025-11-25 17:56:09.973,0.710358,1.124853,285.353241,0.010761,0.012773,0.975248,0.119088,0.175847,9.723789,0.001903,-0.012197,-0.002499,0.364787,-0.626433,-1.209085,100335.0000
1764073570075694375,2025-11-25 17:56:10.073,0.697950,1.176308,285.386948,0.014193,0.012037,0.976608,0.130751,0.171721,9.773584,-0.005656,-0.008020,-0.005764,0.363839,-0.625929,-1.207634,100336.0000
1764073570177290949,2025-11-25 17:56:10.173,0.674878,1.195856,285.413567,0.016288,0.008974,0.979392,0.170190,0.013513,9.818748,-0.000071,-0.003150,-0.004804,0.363826,-0.625492,-1.209567,100335.0000
1764073570277866912,2025-11-25 17:56:10.273,0.668382,1.178683,285.428711,0.016487,0.007282,0.981336,0.177345,0.062926,9.801669,0.002862,0.002837,-0.000950,0.364768,-0.626484,-1.211492,100337.0000
1764073570377819375,2025-11-25 17:56:10.374,0.684701,1.146107,285.443268,0.014110,0.008078,0.981069,0.098111,0.189068,9.793251,0.006523,0.004215,0.000144,0.365756,-0.624995,-1.209121,100337.0000
1764073570476466060,2025-11-25 17:56:10.473,0.700763,1.105037,285.465546,0.012417,0.008720,0.980104,0.130883,0.040513,9.795267,0.000723,0.004367,-0.006367,0.365752,-0.625006,-1.209602,100335.0000
1764073570576245856,2025-11-25 17:56:10.573,0.716910,1.078975,285.492210,0.011345,0.009559,0.978206,0.125544,0.040061,9.791518,0.001723,0.003793,-0.003723,0.365270,-0.622183,-1.211564,100332.0000
1764073570676194152,2025-11-25 17:56:10.673,0.728082,1.066045,285.519547,0.010581,0.010040,0.976285,0.078685,0.182607,9.743315,0.002526,0.002566,-0.002342,0.368169,-0.625909,-1.207698,100342.0000
1764073570776395059,2025-11-25 17:56:10.773,0.732424,1.069837,285.545349,0.010442,0.010329,0.975953,0.103644,0.086977,9.785206,0.000501,-0.005611,-0.006864,0.366731,-0.624016,-1.208187,100338.0000
1764073570876612133,2025-11-25 17:56:10.873,0.736517,1.089050,285.568832,0.010475,0.009574,0.976811,0.126542,0.012516,9.787038,0.003492,-0.008121,-0.001931,0.367681,-0.624987,-1.209149,100330.0000
1764073570976827356,2025-11-25 17:56:10.973,0.737938,1.117501,285.587708,0.011788,0.010122,0.978275,0.131208,0.154272,9.768280,0.003184,-0.005481,-0.000482,0.365749,-0.624071,-1.210580,100342.0000
1764073571075534893,2025-11-25 17:56:11.073,0.734643,1.148696,285.607765,0.012927,0.010680,0.979510,0.120626,0.144696,9.801471,0.000465,-0.008976,-0.006526,0.364306,-0.626435,-1.209078,100341.0000
1764073571176063226,2025-11-25 17:56:11.173,0.717434,1.166988,285.633827,0.014404,0.010698,0.980691,0.157611,0.023752,9.826938,-0.006315,-0.004597,-0.007500,0.365753,-0.624061,-1.210098,100341.0000
1764073571276634133,2025-11-25 17:56:11.273,0.698465,1.166730,285.664032,0.014902,0.009478,0.980814,0.154587,0.096198,9.792693,0.000486,0.001571,0.000519,0.366223,-0.624089,-1.211549,100344.0000
1764073571376311689,2025-11-25 17:56:11.373,0.683271,1.146251,285.695068,0.014417,0.008178,0.980225,0.114633,0.140563,9.789948,0.000413,0.003610,-0.005185,0.368153,-0.624538,-1.210608,100337.0000
1764073571476582355,2025-11-25 17:56:11.473,0.688563,1.107601,285.722336,0.013769,0.006523,0.979098,0.144190,0.007554,9.807067,0.006217,0.002753,-0.003145,0.367204,-0.624979,-1.208661,100340.0000
1764073571576126800,2025-11-25 17:56:11.573,0.721233,1.075251,285.743530,0.011782,0.006756,0.978027,0.118006,0.051225,9.777075,0.011859,0.002890,-0.001407,0.367202,-0.622154,-1.210630,100330.0000
1764073571676389911,2025-11-25 17:56:11.673,0.759463,1.060362,285.756020,0.009869,0.008970,0.976927,0.051702,0.185954,9.743980,0.003062,0.001224,-0.003005,0.366715,-0.625001,-1.209616,100336.0000
1764073571776356448,2025-11-25 17:56:11.773,0.788746,1.065810,285.772308,0.009838,0.010795,0.976696,0.106593,0.085503,9.771685,0.008823,-0.004566,-0.007471,0.367673,-0.625007,-1.210112,100341.0000
1764073571876101448,2025-11-25 17:56:11.873,0.799930,1.089999,285.796143,0.011545,0.011865,0.977540,0.147323,0.037454,9.789262,0.002916,-0.007071,0.000266,0.369101,-0.627399,-1.210578,100344.0000
1764073571976209318,2025-11-25 17:56:11.973,0.792070,1.111550,285.818283,0.012741,0.011650,0.978518,0.128841,0.198957,9.760755,-0.003079,-0.003258,-0.000710,0.368637,-0.623113,-1.211118,100339.0000
1764073572075584503,2025-11-25 17:56:12.072,0.780080,1.121895,285.846748,0.013725,0.009966,0.979200,0.127100,0.100821,9.811308,0.002359,-0.003906,-0.006879,0.366705,-0.625500,-1.210572,100337.0000
1764073572176178411,2025-11-25 17:56:12.173,0.767312,1.124644,285.875557,0.013441,0.008824,0.979775,0.157580,-0.006511,9.813658,-0.003206,0.000331,-0.003562,0.368171,-0.624019,-1.208690,100333.0000
1764073572276908225,2025-11-25 17:56:12.273,0.759821,1.118339,285.899750,0.012763,0.009276,0.979524,0.125287,0.119937,9.791070,-0.003454,-0.002202,-0.000978,0.371046,-0.624037,-1.210176,100332.0000
1764073572376296447,2025-11-25 17:56:12.373,0.749568,1.116875,285.925385,0.011814,0.010421,0.978631,0.098246,0.173121,9.768870,-0.005063,-0.003171,-0.005700,0.369612,-0.624490,-1.208704,100341.0000
1764073572478183021,2025-11-25 17:56:12.475,0.734388,1.121157,285.955215,0.011923,0.010185,0.977659,0.145793,0.016041,9.796905,-0.004928,0.000863,-0.006731,0.369623,-0.623047,-1.208245,100342.0000
1764073572576541188,2025-11-25 17:56:12.573,0.711788,1.125029,285.982773,0.012806,0.009167,0.977632,0.145922,0.075765,9.769069,-0.003219,0.000133,-0.001328,0.371515,-0.622653,-1.212613,100338.0000
1764073572676036299,2025-11-25 17:56:12.673,0.702102,1.122297,286.010544,0.013646,0.008019,0.978353,0.107380,0.157614,9.775636,-0.001488,0.002725,-0.004381,0.372021,-0.620699,-1.210723,100341.0000
1764073572776038281,2025-11-25 17:56:12.773,0.712245,1.109695,286.032028,0.013499,0.006519,0.979299,0.125817,0.017147,9.807601,0.003875,0.005212,-0.004772,0.372488,-0.623563,-1.210687,100337.0000
1764073572875892577,2025-11-25 17:56:12.873,0.745338,1.090273,286.047356,0.012871,0.006567,0.980172,0.147420,0.020408,9.801886,0.004743,0.001979,0.000398,0.374898,-0.623542,-1.210241,100337.0000
1764073572976169114,2025-11-25 17:56:12.973,0.793086,1.075632,286.065742,0.011816,0.008650,0.979771,0.115944,0.175883,9.773201,0.013792,-0.000984,-0.000436,0.374909,-0.622099,-1.209781,100339.0000
1764073573076105521,2025-11-25 17:56:13.073,0.840535,1.072463,286.089996,0.010684,0.010824,0.978877,0.078407,0.145264,9.783536,0.002129,-0.003029,-0.009564,0.373946,-0.624461,-1.208286,100332.0000
1764073573176960243,2025-11-25 17:56:13.173,0.863059,1.083116,286.124680,0.011240,0.012933,0.977611,0.151430,0.055103,9.779078,0.005581,-0.005057,-0.003850,0.373461,-0.624473,-1.208760,100334.0000
1764073573276932188,2025-11-25 17:56:13.273,0.852850,1.099441,286.158363,0.012544,0.013957,0.976687,0.102549,0.191521,9.751986,-0.008612,-0.004421,-0.005384,0.373454,-0.623548,-1.210219,100338.0000
1764073573375842188,2025-11-25 17:56:13.373,0.816579,1.106990,286.191940,0.013432,0.012110,0.977176,0.097957,0.158320,9.764376,-0.004938,-0.004435,-0.007228,0.373470,-0.622563,-1.208790,100335.0000
1764073573476491206,2025-11-25 17:56:13.473,0.771478,1.099284,286.216469,0.013586,0.008719,0.978597,0.142234,-0.011531,9.812305,-0.004319,0.001147,-0.005111,0.373454,-0.623548,-1.210219,100331.0000
1764073573576789206,2025-11-25 17:56:13.573,0.751188,1.086255,286.233162,0.013123,0.006512,0.980132,0.138197,0.040020,9.808415,-0.003599,0.000998,0.003466,0.372981,-0.621172,-1.210730,100343.0000
1764073573676379076,2025-11-25 17:56:13.673,0.750973,1.075852,286.248474,0.011981,0.006898,0.980768,0.076083,0.172782,9.782287,0.003296,0.000651,-0.001164,0.375867,-0.622105,-1.210277,100340.0000
1764073573776272169,2025-11-25 17:56:13.773,0.766546,1.074057,286.272980,0.011909,0.007694,0.980054,0.115483,0.050709,9.812988,0.000396,-0.003831,-0.009215,0.375860,-0.621180,-1.211736,100340.0000
1764073573876010984,2025-11-25 17:56:13.873,0.787495,1.083877,286.304031,0.011943,0.009385,0.978655,0.150130,0.015621,9.792334,0.008028,0.003510,-0.003744,0.374429,-0.622568,-1.209286,100338.0000
1764073573976560761,2025-11-25 17:56:13.973,0.800646,1.091097,286.335907,0.012486,0.010515,0.977514,0.103610,0.204192,9.758851,0.001195,0.000057,-0.005339,0.375399,-0.622544,-1.208337,100341.0000
1764073574075608187,2025-11-25 17:56:14.072,0.807621,1.097436,286.368332,0.012507,0.010898,0.977172,0.101933,0.095087,9.781444,0.001485,0.001434,-0.009398,0.375392,-0.623977,-1.208315,100342.0000
1764073574176539891,2025-11-25 17:56:14.173,0.811253,1.103214,286.395630,0.012637,0.009802,0.977069,0.152134,0.016669,9.773446,0.004121,0.001013,-0.000944,0.377787,-0.623051,-1.210291,100341.0000
1764073574276084094,2025-11-25 17:56:14.273,0.807915,1.103314,286.415596,0.012703,0.009361,0.977436,0.114942,0.164481,9.747271,-0.000459,-0.002550,-0.000040,0.375856,-0.623548,-1.210737,100336.0000
1764073574376318057,2025-11-25 17:56:14.373,0.807743,1.098972,286.439743,0.012883,0.008733,0.978046,0.103463,0.127025,9.779975,0.004153,0.001458,-0.006366,0.377789,-0.622574,-1.210298,100341.0000
1764073574476374354,2025-11-25 17:56:14.473,0.815671,1.089971,286.466827,0.012550,0.008508,0.979061,0.152570,0.012959,9.828848,0.002855,0.000450,-0.006063,0.374917,-0.621133,-1.209315,100340.0000
1764073574576100094,2025-11-25 17:56:14.573,0.820102,1.081202,286.496826,0.012000,0.009779,0.980127,0.111046,0.108420,9.795992,0.000242,-0.002545,-0.003582,0.378753,-0.619266,-1.212289,100338.0000
1764073574676280409,2025-11-25 17:56:14.673,0.822936,1.077392,286.525970,0.011796,0.010671,0.980601,0.107522,0.171828,9.794382,0.003534,-0.000610,-0.003383,0.378293,-0.619685,-1.209386,100340.0000
1764073574776417187,2025-11-25 17:56:14.773,0.827040,1.081553,286.555519,0.012289,0.010006,0.980586,0.143248,0.040887,9.821748,0.003363,0.002309,-0.004800,0.378770,-0.621106,-1.208890,100339.0000
1764073574876271224,2025-11-25 17:56:14.873,0.825401,1.086609,286.573769,0.012884,0.009228,0.979252,0.151622,0.048307,9.794107,0.003836,-0.002149,0.001107,0.378747,-0.621167,-1.211779,100334.0000
1764073574976799020,2025-11-25 17:56:14.973,0.825175,1.089474,286.592743,0.013362,0.009143,0.977687,0.107240,0.184067,9.757892,0.004369,-0.000961,-0.001547,0.377323,-0.621122,-1.209350,100337.0000
1764073575075608224,2025-11-25 17:56:15.073,0.830491,1.087769,286.615387,0.013339,0.009139,0.977053,0.141958,0.078690,9.793356,-0.001473,-0.000823,-0.009288,0.380204,-0.621597,-1.209867,100335.0000
1764073575176959168,2025-11-25 17:56:15.173,0.835877,1.076135,286.641029,0.012899,0.009610,0.976860,0.138329,0.046692,9.769136,0.001500,-0.001350,-0.002868,0.381170,-0.620170,-1.210384,100339.0000
1764073575276003242,2025-11-25 17:56:15.273,0.834541,1.066093,286.673477,0.011728,0.010701,0.977820,0.089263,0.196821,9.742345,0.001571,-0.001896,-0.003167,0.379720,-0.622077,-1.209852,100340.0000
1764073575376525075,2025-11-25 17:56:15.373,0.828143,1.071851,286.701942,0.010917,0.010749,0.978570,0.096298,0.108149,9.798553,-0.005715,-0.000394,-0.006428,0.382136,-0.619210,-1.210413,100336.0000
1764073575476605353,2025-11-25 17:56:15.473,0.808408,1.085929,286.728363,0.011371,0.010212,0.978874,0.135044,0.029640,9.771843,-0.002251,-0.003851,-0.002234,0.380210,-0.619697,-1.210377,100341.0000
1764073575576080075,2025-11-25 17:56:15.573,0.793440,1.108916,286.753853,0.011973,0.008799,0.978524,0.104068,0.143837,9.761688,0.004518,-0.002350,0.000223,0.379240,-0.621134,-1.210341,100333.0000
1764073575676867427,2025-11-25 17:56:15.673,0.793164,1.119787,286.779938,0.014090,0.006850,0.978685,0.137640,0.089493,9.794096,-0.003221,-0.001787,-0.006382,0.383566,-0.623482,-1.209406,100339.0000
1764073575776816223,2025-11-25 17:56:15.773,0.811599,1.107901,286.809059,0.014757,0.006567,0.979130,0.169382,-0.018887,9.812515,0.009741,0.006289,-0.003194,0.381665,-0.618714,-1.209451,100333.0000
1764073575876355593,2025-11-25 17:56:15.873,0.848540,1.080908,286.833527,0.013740,0.007989,0.979640,0.136724,0.119536,9.777312,0.001192,0.005680,-0.002218,0.380212,-0.620632,-1.209400,100338.0000
1764073575976394260,2025-11-25 17:56:15.973,0.883453,1.055573,286.855110,0.012064,0.010448,0.979836,0.097056,0.165081,9.781903,0.000908,0.000990,-0.003325,0.382150,-0.619647,-1.208480,100335.0000
1764073576075520982,2025-11-25 17:56:16.072,0.897775,1.045605,286.880478,0.011109,0.011999,0.979034,0.136338,0.070403,9.813226,0.002995,-0.001649,-0.002480,0.382125,-0.621599,-1.210377,100343.0000
1764073576176663556,2025-11-25 17:56:16.173,0.888734,1.057134,286.909180,0.011185,0.012624,0.977879,0.138246,0.104442,9.770180,-0.003019,-0.003938,-0.001958,0.384032,-0.623521,-1.211339,100339.0000
1764073576276957519,2025-11-25 17:56:16.273,0.867812,1.076434,286.935577,0.012371,0.011620,0.977253,0.104749,0.182116,9.751967,-0.002074,-0.004683,-0.005882,0.383107,-0.620598,-1.208480,100337.0000
1764073576376350352,2025-11-25 17:56:16.373,0.830068,1.082193,286.964302,0.013605,0.009650,0.977367,0.141125,0.016903,9.785943,-0.007182,-0.000865,-0.010129,0.384550,-0.619179,-1.209486,100343.0000
1764073576476319075,2025-11-25 17:56:16.473,0.807129,1.068582,286.988968,0.013942,0.007980,0.977906,0.142526,0.039828,9.778861,-0.001473,0.001255,-0.002113,0.383581,-0.619671,-1.209946,100339.0000
1764073576576327149,2025-11-25 17:56:16.573,0.797734,1.049896,287.010551,0.012302,0.006874,0.978942,0.088937,0.137935,9.778461,0.001307,0.001960,-0.001083,0.384059,-0.618734,-1.210930,100337.0000
1764073576676653297,2025-11-25 17:56:16.673,0.811189,1.033620,287.031288,0.010856,0.006893,0.979357,0.102670,0.051996,9.803404,0.005367,-0.000260,-0.006869,0.386946,-0.619666,-1.210477,100338.0000
1764073576775817500,2025-11-25 17:56:16.773,0.840199,1.046527,287.054291,0.009829,0.007689,0.979114,0.124213,0.007011,9.793899,0.007312,-0.004437,-0.001244,0.382620,-0.618730,-1.210428,100332.0000
1764073576876326037,2025-11-25 17:56:16.873,0.874189,1.078013,287.081345,0.010777,0.010050,0.978853,0.128167,0.184338,9.765914,0.004326,-0.006544,0.000580,0.384539,-0.620622,-1.209946,100339.0000
1764073576976569889,2025-11-25 17:56:16.973,0.896846,1.109489,287.106850,0.013108,0.011176,0.978369,0.129588,0.137137,9.792917,0.007458,-0.003865,-0.005923,0.384085,-0.616783,-1.209034,100335.0000
1764073577075554111,2025-11-25 17:56:17.072,0.903723,1.122778,287.129387,0.015496,0.011471,0.978536,0.195438,0.034167,9.795320,-0.001128,0.002773,-0.003395,0.385510,-0.619653,-1.209493,100340.0000
1764073577175837796,2025-11-25 17:56:17.172,0.893809,1.108028,287.152176,0.015493,0.011372,0.978764,0.126283,0.160727,9.773879,-0.000021,0.002193,-0.000778,0.383574,-0.619692,-1.210909,100340.0000
1764073577276090963,2025-11-25 17:56:17.273,0.865611,1.077579,287.175896,0.013821,0.010580,0.978752,0.097527,0.160541,9.776937,-0.007033,0.004718,-0.007186,0.385982,-0.620616,-1.209967,100333.0000
1764073577376797241,2025-11-25 17:56:17.373,0.843781,1.041458,287.201042,0.012274,0.008772,0.978656,0.135476,-0.010800,9.808120,-0.000345,0.005027,-0.003889,0.387429,-0.619187,-1.210492,100332.0000
1764073577478639796,2025-11-25 17:56:17.473,0.827476,1.021102,287.228851,0.010406,0.007733,0.978342,0.115749,0.066546,9.765058,-0.001711,0.000190,-0.003570,0.386937,-0.618274,-1.212425,100338.0000
1764073577576529000,2025-11-25 17:56:17.573,0.829104,1.022614,287.260162,0.009970,0.008371,0.978317,0.087115,0.168031,9.765459,0.004870,-0.003824,-0.005205,0.387920,-0.617274,-1.210528,100336.0000
1764073577677421037,2025-11-25 17:56:17.674,0.841618,1.045173,287.289963,0.010415,0.008885,0.978460,0.133457,0.034298,9.800224,0.004789,-0.006955,-0.005818,0.386969,-0.615835,-1.210054,100341.0000
1764073577776010852,2025-11-25 17:56:17.773,0.851459,1.075681,287.317238,0.011177,0.009619,0.978445,0.137315,0.047048,9.799675,-0.001761,-0.002774,-0.000730,0.386956,-0.619168,-1.209522,100336.0000
1764073577876620796,2025-11-25 17:56:17.873,0.862516,1.107265,287.333954,0.012465,0.009500,0.978627,0.120157,0.182079,9.756000,0.006006,-0.006361,-0.002055,0.387425,-0.619197,-1.210973,100341.0000
1764073577976037703,2025-11-25 17:56:17.973,0.869198,1.131608,287.354424,0.014232,0.009311,0.978784,0.143859,0.054970,9.806746,0.000797,-0.004170,-0.004975,0.388406,-0.617729,-1.209565,100332.0000
1764073578075876666,2025-11-25 17:56:18.073,0.876241,1.137865,287.379272,0.014888,0.009301,0.978926,0.184422,0.018626,9.791385,0.008157,-0.002520,-0.002264,0.389839,-0.620578,-1.209061,100330.0000
1764073578176046574,2025-11-25 17:56:18.173,0.879133,1.123141,287.408676,0.015624,0.010082,0.979278,0.114914,0.186850,9.763309,0.002367,0.007259,-0.003156,0.387438,-0.618221,-1.210025,100338.0000
1764073578276640425,2025-11-25 17:56:18.273,0.879604,1.088145,287.441757,0.014593,0.009989,0.979464,0.110943,0.112926,9.803727,-0.001925,0.004555,-0.003041,0.389862,-0.616747,-1.208638,100334.0000
1764073578376823685,2025-11-25 17:56:18.373,0.877603,1.044078,287.475815,0.012775,0.009934,0.978776,0.131711,0.013730,9.785048,0.000561,0.006918,-0.003737,0.392251,-0.620079,-1.208623,100340.0000
1764073578476428259,2025-11-25 17:56:18.473,0.871310,1.008811,287.500397,0.010612,0.009815,0.978273,0.092774,0.133862,9.764672,-0.000800,0.006718,-0.001859,0.390825,-0.618155,-1.207668,100337.0000
1764073578576319240,2025-11-25 17:56:18.573,0.866377,0.996515,287.517952,0.009181,0.009061,0.977868,0.055161,0.134094,9.768959,0.001182,-0.001088,-0.005138,0.391284,-0.619627,-1.209579,100333.0000
1764073578676158221,2025-11-25 17:56:18.673,0.863132,1.012215,287.540535,0.009470,0.008567,0.977939,0.125786,0.027127,9.804385,-0.000141,-0.005756,-0.003120,0.390339,-0.617700,-1.208631,100345.0000
1764073578775858073,2025-11-25 17:56:18.773,0.869458,1.047086,287.563881,0.010394,0.008802,0.978010,0.117242,0.110453,9.766361,0.004833,-0.009337,0.001384,0.390809,-0.616783,-1.210578,100342.0000
1764073578876161110,2025-11-25 17:56:18.873,0.877869,1.092888,287.594696,0.012780,0.009506,0.978303,0.128340,0.164832,9.777302,0.000372,-0.014240,-0.007273,0.391772,-0.618191,-1.209608,100341.0000
1764073578976578055,2025-11-25 17:56:18.973,0.880733,1.124447,287.627220,0.014022,0.009727,0.978861,0.161342,0.040099,9.811443,0.000298,-0.006031,-0.008780,0.392266,-0.616268,-1.209163,100332.0000
1764073579075789073,2025-11-25 17:56:19.073,0.881718,1.131425,287.653252,0.015391,0.010424,0.979016,0.180200,0.074090,9.774682,-0.000382,0.000672,-0.002835,0.393693,-0.618193,-1.210117,100343.0000
1764073579176775943,2025-11-25 17:56:19.173,0.876458,1.113518,287.676064,0.015031,0.010525,0.978658,0.132445,0.177690,9.774018,-0.002885,0.006508,-0.004575,0.394178,-0.619593,-1.208658,100334.0000
1764073579276168351,2025-11-25 17:56:19.273,0.869008,1.075545,287.701683,0.014075,0.009348,0.979212,0.125080,0.051650,9.799573,0.002113,0.005159,-0.005399,0.391770,-0.617724,-1.210096,100342.0000
1764073579376180740,2025-11-25 17:56:19.373,0.864985,1.034201,287.726662,0.012657,0.008871,0.979102,0.117260,0.031434,9.776255,-0.001788,0.005217,-0.005426,0.395145,-0.618633,-1.208687,100340.0000
1764073579476710739,2025-11-25 17:56:19.473,0.862610,1.009987,287.752434,0.010408,0.009313,0.978776,0.080398,0.161901,9.766859,0.000447,0.004523,-0.005902,0.393711,-0.615316,-1.209680,100334.0000
1764073579576582128,2025-11-25 17:56:19.573,0.858262,1.008263,287.781464,0.009746,0.008956,0.978331,0.089777,0.069642,9.779255,-0.001075,-0.002336,-0.010827,0.396125,-0.614340,-1.209249,100341.0000
1764073579676698702,2025-11-25 17:56:19.673,0.863907,1.028226,287.805214,0.010363,0.008997,0.977668,0.137668,0.012817,9.789498,0.004559,-0.005186,0.000429,0.393201,-0.617280,-1.212051,100339.0000
1764073579776276313,2025-11-25 17:56:19.773,0.871245,1.055548,287.827774,0.011858,0.009757,0.977919,0.095876,0.177893,9.755816,0.000735,-0.002954,-0.000695,0.395153,-0.617200,-1.208709,100336.0000
1764073579876643739,2025-11-25 17:56:19.873,0.874178,1.082071,287.853821,0.012897,0.010097,0.977720,0.136774,0.104353,9.772421,0.000692,-0.003556,-0.006480,0.395155,-0.615310,-1.209701,100337.0000
1764073579976081406,2025-11-25 17:56:19.973,0.876177,1.092885,287.875984,0.014296,0.009229,0.978620,0.173216,0.019125,9.811991,0.006231,-0.002207,-0.002626,0.394190,-0.617205,-1.208695,100337.0000
1764073580075667998,2025-11-25 17:56:20.073,0.881457,1.085302,287.903717,0.014278,0.009420,0.979370,0.129535,0.133560,9.779081,-0.001603,0.004040,-0.001088,0.394671,-0.615790,-1.209687,100343.0000
1764073580176082850,2025-11-25 17:56:20.173,0.885931,1.065398,287.927803,0.013973,0.009396,0.979653,0.112660,0.142183,9.799559,0.006017,-0.000780,-0.003600,0.397567,-0.616224,-1.208278,100335.0000
1764073580275819646,2025-11-25 17:56:20.273,0.888371,1.043112,287.954620,0.012654,0.009932,0.979611,0.141556,0.040768,9.812680,-0.000930,0.003412,-0.005533,0.397553,-0.615320,-1.210700,100341.0000
1764073580376396183,2025-11-25 17:56:20.373,0.885766,1.033225,287.978249,0.011255,0.010832,0.979061,0.112214,0.107934,9.790428,-0.000193,0.000115,-0.002138,0.397067,-0.616277,-1.210678,100338.0000
1764073580475327294,2025-11-25 17:56:20.473,0.869962,1.038817,288.004234,0.010767,0.010870,0.978296,0.089315,0.177298,9.769547,-0.004676,-0.004607,-0.003901,0.396112,-0.614848,-1.210685,100343.0000
1764073580575865461,2025-11-25 17:56:20.573,0.856452,1.052431,288.026840,0.011510,0.009593,0.978200,0.129236,0.032008,9.813336,-0.001910,-0.003696,-0.004292,0.395658,-0.612421,-1.208790,100336.0000
1764073580676286628,2025-11-25 17:56:20.673,0.849562,1.064489,288.051773,0.012820,0.008210,0.977728,0.149988,0.040733,9.782942,0.000124,-0.001181,-0.001253,0.397536,-0.616306,-1.212129,100338.0000
1764073580776003554,2025-11-25 17:56:20.773,0.850192,1.069228,288.074333,0.013318,0.008433,0.978069,0.116739,0.166097,9.755609,0.003301,-0.000138,-0.005120,0.397065,-0.615810,-1.211167,100334.0000
1764073580876199331,2025-11-25 17:56:20.873,0.858329,1.064940,288.095650,0.013648,0.007965,0.978326,0.140306,0.060596,9.792735,-0.002375,0.001536,-0.004748,0.398041,-0.615297,-1.209744,100338.0000
1764073580975976442,2025-11-25 17:56:20.973,0.872703,1.051659,288.118019,0.013142,0.008995,0.978576,0.146819,0.012193,9.793838,0.004781,0.001260,-0.002873,0.398972,-0.617732,-1.212129,100330.0000
1764073581075635183,2025-11-25 17:56:21.072,0.887217,1.038354,288.139687,0.012429,0.009849,0.978916,0.100586,0.159764,9.768740,0.001888,-0.000295,-0.000744,0.398505,-0.617226,-1.210685,100340.0000
1764073581176643850,2025-11-25 17:56:21.173,0.896479,1.033947,288.164207,0.011769,0.010384,0.978767,0.111553,0.105410,9.793807,0.004250,0.000378,-0.004472,0.400466,-0.613823,-1.208357,100339.0000
1764073581276746924,2025-11-25 17:56:21.273,0.898596,1.036089,288.190147,0.011799,0.010342,0.978959,0.138132,0.026976,9.801210,-0.001056,0.001618,-0.003613,0.399493,-0.615270,-1.208803,100341.0000
1764073581376522442,2025-11-25 17:56:21.373,0.898430,1.041878,288.212044,0.011737,0.010498,0.978745,0.098171,0.158095,9.769895,0.002690,-0.002069,-0.000234,0.397067,-0.616277,-1.210678,100339.0000
1764073581476611053,2025-11-25 17:56:21.473,0.892407,1.057807,288.231941,0.012012,0.009763,0.978452,0.121853,0.110376,9.791777,-0.004161,-0.005215,-0.006371,0.399491,-0.614803,-1.209291,100341.0000
1764073581576648646,2025-11-25 17:56:21.573,0.881060,1.073202,288.251930,0.012516,0.009435,0.978345,0.156338,-0.001653,9.796193,0.001846,-0.005133,-0.001096,0.401410,-0.615282,-1.209794,100335.0000
1764073581676144646,2025-11-25 17:56:21.673,0.870589,1.078161,288.272934,0.013661,0.009309,0.978107,0.125065,0.140999,9.754789,-0.000999,-0.000187,-0.002170,0.399952,-0.617209,-1.210224,100338.0000
1764073581776578423,2025-11-25 17:56:21.773,0.869985,1.069398,288.295601,0.014099,0.008733,0.978203,0.126059,0.129846,9.782646,-0.001172,0.005279,-0.005849,0.400450,-0.614809,-1.209787,100335.0000
1764073581875843071,2025-11-25 17:56:21.873,0.873075,1.047359,288.315735,0.013611,0.008273,0.978675,0.164980,-0.011114,9.809984,-0.001371,0.003333,-0.003757,0.403358,-0.611909,-1.208911,100332.0000
1764073581976619553,2025-11-25 17:56:21.973,0.885214,1.025567,288.335220,0.012099,0.008889,0.979345,0.118633,0.102966,9.796898,0.007476,0.002041,-0.000149,0.399498,-0.613370,-1.209313,100328.0000
1764073582075910868,2025-11-25 17:56:22.072,0.899348,1.013534,288.355721,0.011146,0.009760,0.979414,0.070171,0.173865,9.781979,0.002025,-0.001375,-0.005412,0.401423,-0.615719,-1.207861,100335.0000
1764073582179039868,2025-11-25 17:56:22.173,0.906826,1.018263,288.373688,0.011387,0.010312,0.979057,0.135429,0.039609,9.802740,-0.001004,-0.005033,-0.004466,0.401904,-0.613359,-1.209349,100340.0000
1764073582277270312,2025-11-25 17:56:22.273,0.901349,1.034533,288.393410,0.011573,0.010960,0.977999,0.137910,0.113100,9.775282,0.002469,-0.003554,-0.001289,0.399981,-0.613835,-1.208831,100335.0000
1764073582376463219,2025-11-25 17:56:22.373,0.886070,1.053019,288.415627,0.012569,0.010563,0.977749,0.105320,0.173732,9.748605,-0.009883,-0.002258,-0.006054,0.401919,-0.613318,-1.207423,100341.0000
1764073582476050719,2025-11-25 17:56:22.473,0.865609,1.054477,288.441124,0.013649,0.009427,0.977458,0.132760,0.008788,9.782120,0.000475,0.001447,-0.003945,0.400930,-0.613394,-1.210778,100334.0000
1764073582576165015,2025-11-25 17:56:22.573,0.852030,1.046136,288.465485,0.013960,0.008097,0.978195,0.141383,0.058537,9.775477,-0.003406,0.003589,-0.002519,0.400448,-0.614341,-1.210275,100335.0000
1764073582676705478,2025-11-25 17:56:22.673,0.859215,1.030639,288.484787,0.013107,0.007262,0.979065,0.091025,0.158965,9.761315,0.007073,0.000640,-0.003370,0.402373,-0.615745,-1.209319,100334.0000
1764073582775979367,2025-11-25 17:56:22.773,0.876869,1.017482,288.503822,0.011864,0.007883,0.979718,0.120559,0.034827,9.805395,0.002532,-0.000795,-0.004740,0.403335,-0.614328,-1.210318,100339.0000
1764073582876375552,2025-11-25 17:56:22.873,0.903327,1.017464,288.522232,0.010674,0.009232,0.979225,0.132362,0.064543,9.793043,0.007551,-0.005105,-0.001032,0.404791,-0.613346,-1.209391,100342.0000
1764073582976420811,2025-11-25 17:56:22.973,0.922212,1.033292,288.542435,0.011009,0.011163,0.978587,0.098855,0.211270,9.771131,0.006871,-0.002940,-0.001319,0.402858,-0.614320,-1.209830,100338.0000
1764073583075506830,2025-11-25 17:56:23.072,0.923759,1.051668,288.565613,0.012499,0.011396,0.978301,0.155555,0.050400,9.805918,-0.003747,-0.003649,-0.003124,0.403350,-0.612875,-1.209377,100335.0000
1764073583175965274,2025-11-25 17:56:23.173,0.912348,1.066772,288.587021,0.013311,0.011030,0.977808,0.163747,0.038087,9.780429,0.002836,0.000020,-0.001426,0.403841,-0.612375,-1.208429,100326.0000
1764073583276524052,2025-11-25 17:56:23.273,0.895457,1.069317,288.608597,0.014209,0.010085,0.978331,0.115737,0.184644,9.776911,-0.006275,0.002071,-0.001874,0.403344,-0.612418,-1.210348,100339.0000
1764073583376614348,2025-11-25 17:56:23.373,0.883574,1.054923,288.632668,0.013667,0.008763,0.978960,0.133540,0.057765,9.812610,0.002704,0.004589,-0.005785,0.402873,-0.612867,-1.208889,100332.0000
1764073583476676330,2025-11-25 17:56:23.473,0.875164,1.033155,288.653389,0.013036,0.008854,0.978779,0.138466,0.046904,9.777174,0.003860,0.005673,-0.001327,0.404787,-0.613356,-1.209873,100331.0000
1764073583576662774,2025-11-25 17:56:23.573,0.875954,1.014359,288.672585,0.011803,0.009279,0.978622,0.101482,0.187418,9.763323,-0.004688,0.004707,-0.002196,0.408655,-0.611875,-1.208508,100343.0000
1764073583676314756,2025-11-25 17:56:23.673,0.870319,1.002689,288.692253,0.011015,0.009343,0.978181,0.098662,0.100089,9.786910,0.001473,-0.002941,-0.003822,0.406241,-0.612852,-1.208939,100338.0000
1764073583775931626,2025-11-25 17:56:23.773,0.864167,1.004714,288.712158,0.010996,0.008740,0.978266,0.122536,0.011564,9.801122,-0.001206,0.001773,-0.002149,0.404811,-0.610937,-1.208465,100342.0000
1764073583876975885,2025-11-25 17:56:23.873,0.866172,1.019691,288.728027,0.011916,0.008289,0.978711,0.106230,0.158883,9.753251,-0.000589,-0.003903,-0.002284,0.406229,-0.612882,-1.210383,100345.0000
1764073583976769422,2025-11-25 17:56:23.973,0.875812,1.037439,288.748917,0.012352,0.008120,0.979436,0.106546,0.102978,9.813668,0.001248,-0.001210,-0.009055,0.404791,-0.613346,-1.209391,100332.0000
1764073584075859070,2025-11-25 17:56:24.073,0.903093,1.052516,288.770035,0.013208,0.008484,0.979587,0.145186,0.006270,9.816974,0.004956,-0.001227,0.001083,0.405759,-0.612854,-1.208931,100341.0000
1764073584176131829,2025-11-25 17:56:24.173,0.928847,1.056593,288.791260,0.013864,0.010312,0.978859,0.131045,0.179194,9.774211,0.001923,-0.001466,0.001168,0.405284,-0.613313,-1.207954,100341.0000
1764073584276466477,2025-11-25 17:56:24.273,0.941035,1.044280,288.814774,0.013606,0.011338,0.978403,0.105391,0.141755,9.790914,0.004200,0.000180,-0.005829,0.406243,-0.612374,-1.208946,100337.0000
1764073584375524274,2025-11-25 17:56:24.373,0.936606,1.022862,288.836678,0.013058,0.011535,0.977862,0.155599,0.038196,9.791369,-0.002043,0.003259,0.000346,0.405772,-0.613291,-1.206999,100328.0000
1764073584476570051,2025-11-25 17:56:24.473,0.915502,0.999181,288.859306,0.011919,0.011560,0.977983,0.106416,0.146485,9.762678,-0.008243,0.003827,-0.004520,0.408174,-0.611877,-1.208501,100335.0000
1764073584576173662,2025-11-25 17:56:24.573,0.885623,0.992932,288.886139,0.010624,0.010562,0.977939,0.086147,0.143296,9.777741,-0.004050,-0.003826,-0.005887,0.408646,-0.612841,-1.208974,100338.0000
1764073584678035644,2025-11-25 17:56:24.673,0.857669,1.001353,288.913521,0.010399,0.008187,0.978819,0.128542,0.003006,9.821290,-0.007271,-0.005559,-0.006010,0.408654,-0.610463,-1.209492,100337.0000
1764073584776327273,2025-11-25 17:56:24.773,0.848841,1.021400,288.936546,0.011108,0.006931,0.978891,0.116363,0.097917,9.774070,0.002104,-0.006535,0.001575,0.407201,-0.610967,-1.210426,100332.0000
1764073584876047755,2025-11-25 17:56:24.873,0.857326,1.048559,288.958389,0.011881,0.007135,0.979322,0.097430,0.146061,9.781167,0.004081,-0.003518,-0.003349,0.409119,-0.610034,-1.211914,100340.0000
1764073584976437236,2025-11-25 17:56:24.973,0.890731,1.072068,288.980637,0.013665,0.007697,0.979170,0.164916,0.008887,9.806022,0.008198,-0.007156,-0.004394,0.405757,-0.611919,-1.209909,100341.0000
1764073585075520051,2025-11-25 17:56:25.073,0.923000,1.072617,288.998436,0.015172,0.009578,0.978983,0.162535,0.094325,9.774645,0.005938,0.003573,0.001238,0.406248,-0.611419,-1.208961,100335.0000
1764073585176654032,2025-11-25 17:56:25.173,0.943281,1.045767,289.020187,0.015392,0.011312,0.978792,0.128963,0.174948,9.782090,0.002456,0.006469,-0.006462,0.408173,-0.610465,-1.209485,100345.0000
1764073585276262884,2025-11-25 17:56:25.273,0.943420,1.001251,289.043304,0.013878,0.012232,0.979208,0.131457,0.058196,9.811374,-0.000858,0.006074,-0.006768,0.410097,-0.612814,-1.208033,100339.0000
1764073585376232384,2025-11-25 17:56:25.373,0.921098,0.959869,289.067551,0.011434,0.011644,0.978681,0.118022,0.096985,9.787955,-0.007463,0.005700,-0.002591,0.411051,-0.613775,-1.208514,100340.0000
1764073585476024791,2025-11-25 17:56:25.473,0.890193,0.945256,289.090645,0.008816,0.010073,0.977710,0.058817,0.158232,9.760942,0.000801,-0.005298,-0.005133,0.410074,-0.612875,-1.210921,100339.0000
1764073585576141995,2025-11-25 17:56:25.573,0.870485,0.964900,289.112328,0.008303,0.007500,0.977518,0.095692,0.012659,9.799527,-0.002706,-0.008806,-0.005655,0.411054,-0.612352,-1.209017,100337.0000
1764073585678638606,2025-11-25 17:56:25.675,0.868843,1.012082,289.129761,0.009849,0.007021,0.977604,0.144983,0.033898,9.795113,-0.000303,-0.010605,0.000777,0.406235,-0.610982,-1.210893,100342.0000
1764073585775873606,2025-11-25 17:56:25.773,0.883066,1.068207,289.152893,0.012454,0.008067,0.978371,0.133125,0.172457,9.764462,0.002641,-0.010386,-0.006701,0.411057,-0.609517,-1.210505,100337.0000
1764073585875945976,2025-11-25 17:56:25.873,0.907192,1.107800,289.176979,0.014993,0.009434,0.979325,0.151124,0.069888,9.810613,0.004149,-0.009260,-0.004258,0.410097,-0.612814,-1.208033,100331.0000
1764073585976521902,2025-11-25 17:56:25.973,0.917365,1.112235,289.205894,0.016452,0.010536,0.979712,0.170336,0.064483,9.798387,-0.002322,0.004184,-0.004606,0.408657,-0.609985,-1.209500,100339.0000
1764073586075891958,2025-11-25 17:56:26.073,0.919195,1.078850,289.238205,0.016338,0.010815,0.979711,0.160095,0.207838,9.776113,0.000032,0.011420,-0.004252,0.410579,-0.609041,-1.210505,100337.0000
1764073586176431198,2025-11-25 17:56:26.173,0.915493,1.017312,289.265419,0.014886,0.010037,0.978947,0.128212,0.073949,9.779484,-0.003541,0.008335,-0.008038,0.409618,-0.610926,-1.209018,100337.0000
1764073586276581513,2025-11-25 17:56:26.273,0.908357,0.955891,289.290047,0.012227,0.009453,0.978177,0.140392,0.022946,9.785774,0.002238,0.008677,-0.002594,0.412041,-0.609929,-1.207624,100332.0000
1764073586377309754,2025-11-25 17:56:26.373,0.906533,0.916175,289.308975,0.009588,0.009576,0.977685,0.065847,0.184234,9.744308,-0.001287,0.005793,-0.004105,0.412976,-0.609996,-1.211008,100340.0000
1764073586476656254,2025-11-25 17:56:26.473,0.908954,0.909166,289.328964,0.007901,0.009004,0.977626,0.073516,0.080453,9.784249,-0.000098,-0.006814,-0.007281,0.414441,-0.609461,-1.208630,100335.0000
1764073586576240902,2025-11-25 17:56:26.573,0.910967,0.940753,289.354675,0.008246,0.008812,0.978114,0.123325,0.028023,9.791020,-0.002357,-0.009710,-0.002018,0.412506,-0.609968,-1.209557,100344.0000
1764073586676552346,2025-11-25 17:56:26.673,0.913562,1.001165,289.382652,0.009990,0.009471,0.978471,0.099475,0.161354,9.754953,-0.000790,-0.012645,-0.003156,0.412521,-0.608514,-1.208616,100335.0000
1764073586775914717,2025-11-25 17:56:26.773,0.921410,1.063292,289.414253,0.013049,0.009111,0.978719,0.145211,0.083696,9.789874,0.003023,-0.013462,-0.007385,0.412039,-0.609461,-1.208113,100351.0000
1764073586876383365,2025-11-25 17:56:26.873,0.928756,1.102573,289.441566,0.016082,0.009175,0.979237,0.194049,0.008129,9.803697,0.002143,-0.002883,-0.002771,0.410581,-0.609976,-1.209528,100341.0000
1764073586976901050,2025-11-25 17:56:26.973,0.935861,1.106364,289.467064,0.016860,0.010100,0.979639,0.159969,0.169441,9.786022,0.001517,0.001656,-0.004215,0.412512,-0.608067,-1.210067,100337.0000
1764073587076930846,2025-11-25 17:56:27.073,0.935914,1.072164,289.492638,0.016461,0.010757,0.979648,0.144901,0.101458,9.809920,0.002645,0.004463,-0.002780,0.413956,-0.608528,-1.209600,100338.0000
1764073587176531346,2025-11-25 17:56:27.173,0.924229,1.015407,289.515907,0.014444,0.010278,0.979213,0.149729,0.014796,9.807449,0.001603,0.007229,-0.002181,0.414906,-0.609499,-1.210562,100336.0000
1764073587277020364,2025-11-25 17:56:27.273,0.916293,0.958704,289.541908,0.011145,0.009788,0.978130,0.086206,0.143845,9.766522,0.000733,0.006927,-0.003449,0.414912,-0.609957,-1.209592,100337.0000
1764073587376239476,2025-11-25 17:56:27.373,0.905788,0.926558,289.570541,0.009303,0.008793,0.977848,0.067080,0.105014,9.795586,0.000721,0.002396,-0.007841,0.415897,-0.608478,-1.207703,100330.0000
1764073587476586661,2025-11-25 17:56:27.473,0.908729,0.926124,289.597450,0.008892,0.008153,0.977322,0.121665,-0.004040,9.785128,0.002341,-0.004422,-0.003567,0.416374,-0.608487,-1.208191,100341.0000
1764073587576040698,2025-11-25 17:56:27.573,0.917056,0.951891,289.625412,0.010049,0.008711,0.977707,0.105886,0.135061,9.748796,0.004191,-0.006812,-0.002034,0.416373,-0.608019,-1.208680,100344.0000
1764073587676056512,2025-11-25 17:56:27.673,0.936954,0.994964,289.651222,0.011810,0.008902,0.978464,0.113420,0.127560,9.789433,0.001663,-0.008179,-0.007009,0.417322,-0.607578,-1.210627,100341.0000
1764073587776336994,2025-11-25 17:56:27.773,0.952319,1.029593,289.679962,0.013633,0.009356,0.979184,0.159400,-0.001539,9.811012,0.003843,-0.006459,-0.003940,0.416339,-0.609524,-1.212027,100339.0000
1764073587876065938,2025-11-25 17:56:27.873,0.963354,1.046885,289.703400,0.014561,0.010731,0.979308,0.122141,0.149365,9.773933,-0.003403,-0.002004,-0.000632,0.416349,-0.610438,-1.210087,100341.0000
1764073587976505642,2025-11-25 17:56:27.973,0.960636,1.042165,289.731804,0.014970,0.010973,0.979454,0.124532,0.159848,9.779403,-0.000801,0.001778,-0.008849,0.415900,-0.608468,-1.207221,100330.0000
1764073588075955957,2025-11-25 17:56:28.072,0.947152,1.016536,289.763474,0.014210,0.010561,0.979088,0.156868,0.042367,9.804411,-0.002090,0.006221,-0.006484,0.418299,-0.608478,-1.208220,100339.0000
1764073588178217864,2025-11-25 17:56:28.173,0.930989,0.984922,289.793938,0.013121,0.009510,0.978569,0.136654,0.113953,9.771680,-0.002829,0.004424,-0.001997,0.417814,-0.609903,-1.207709,100338.0000
1764073588276399123,2025-11-25 17:56:28.273,0.917701,0.958686,289.819817,0.010987,0.008695,0.978325,0.078112,0.155081,9.769838,-0.000654,0.003002,-0.006653,0.418301,-0.608001,-1.208227,100335.0000
1764073588376280716,2025-11-25 17:56:28.373,0.914656,0.950910,289.848564,0.009942,0.007665,0.978189,0.114181,0.009504,9.807994,0.003941,-0.000630,-0.005393,0.421180,-0.608008,-1.209233,100337.0000
1764073588475988104,2025-11-25 17:56:28.473,0.931188,0.962615,289.871307,0.010522,0.007768,0.978088,0.139858,0.082492,9.792184,0.006138,-0.001490,0.000505,0.416374,-0.608487,-1.208191,100332.0000
1764073588576683308,2025-11-25 17:56:28.573,0.952923,0.983830,289.895767,0.011515,0.009315,0.978283,0.107040,0.177417,9.785128,0.005602,-0.006033,-0.004327,0.420720,-0.606069,-1.207811,100339.0000
1764073588676821049,2025-11-25 17:56:28.673,0.971181,1.002274,289.923058,0.013626,0.010330,0.978724,0.153929,0.047360,9.803013,0.004552,-0.000178,-0.006638,0.419739,-0.607537,-1.209219,100336.0000
1764073588776341197,2025-11-25 17:56:28.773,0.971630,0.999066,289.954659,0.014859,0.010803,0.978848,0.158687,0.072698,9.784476,-0.000168,0.000695,-0.002142,0.419253,-0.607082,-1.210181,100337.0000
1764073588876535697,2025-11-25 17:56:28.873,0.962273,0.981795,289.988617,0.014218,0.011035,0.978856,0.102890,0.196561,9.785874,-0.003254,0.006569,-0.005691,0.418791,-0.607033,-1.207767,100338.0000
1764073588977537623,2025-11-25 17:56:28.973,0.947912,0.955463,290.020935,0.013092,0.009919,0.978586,0.132064,0.072140,9.802412,-0.001733,0.004796,-0.010886,0.420228,-0.607514,-1.208263,100339.0000
1764073589075899512,2025-11-25 17:56:29.073,0.939626,0.936103,290.049179,0.011342,0.008802,0.978153,0.123467,0.019444,9.785142,0.004929,0.002815,-0.003350,0.419761,-0.602293,-1.209780,100343.0000
1764073589176508419,2025-11-25 17:56:29.173,0.937371,0.935319,290.077385,0.010544,0.008334,0.977980,0.096120,0.170126,9.767176,-0.002890,0.000207,-0.002629,0.422140,-0.607069,-1.210224,100342.0000
1764073589276398604,2025-11-25 17:56:29.273,0.945286,0.946709,290.107681,0.010713,0.008218,0.978354,0.102948,0.054945,9.792978,0.005045,-0.002511,-0.007997,0.421187,-0.607520,-1.208758,100332.0000
1764073589376319622,2025-11-25 17:56:29.373,0.950781,0.966376,290.138580,0.014481,0.011364,0.978143,0.161893,0.149733,9.734769,-0.001549,-0.001272,-0.005396,0.422142,-0.608004,-1.209247,100340.0000
1764073589477000363,2025-11-25 17:56:29.473,0.913476,0.972411,290.181076,0.009395,0.015891,0.977562,-0.019544,0.345715,9.778028,-0.008163,-0.006049,-0.008141,0.422631,-0.607981,-1.208291,100346.0000
1764073589576666956,2025-11-25 17:56:29.573,0.766541,1.049274,290.239426,-0.002562,0.022770,0.987497,-0.047184,0.160149,9.941170,-0.034386,-0.030955,-0.013971,0.422160,-0.603715,-1.209794,100337.0000
1764073589676752178,2025-11-25 17:56:29.673,0.529609,1.304831,290.308151,-0.016716,0.014339,0.993777,0.069740,-0.157335,9.960899,-0.042658,-0.060820,-0.013652,0.418278,-0.601933,-1.215061,100337.0000
1764073589776154307,2025-11-25 17:56:29.773,0.284685,1.618470,290.388939,0.008239,-0.000308,0.982156,0.135811,-0.069353,9.727267,-0.036299,-0.049211,-0.012545,0.417790,-0.597240,-1.218979,100335.0000
1764073589876483067,2025-11-25 17:56:29.873,0.115576,1.776705,290.479294,0.025956,-0.004878,0.969559,0.356997,-0.060462,9.649894,-0.020929,-0.006077,-0.020722,0.417783,-0.597728,-1.219453,100341.0000
1764073589976761085,2025-11-25 17:56:29.973,0.023202,1.653189,290.588226,0.030494,-0.007580,0.965498,0.261480,-0.128780,9.706817,-0.008930,0.044986,-0.021610,0.422125,-0.596266,-1.219057,100339.0000
1764073590075535492,2025-11-25 17:56:30.072,-0.014624,1.309706,290.723976,0.020360,-0.005493,0.968451,0.076768,0.032289,9.684682,-0.002235,0.067651,-0.021084,0.423092,-0.596719,-1.218101,100336.0000
1764073590176328918,2025-11-25 17:56:30.173,-0.042105,0.855747,290.876083,0.013291,-0.003232,0.973699,0.179222,-0.001783,9.784315,-0.001409,0.079407,-0.031975,0.432723,-0.595242,-1.218266,100341.0000
1764073590276605492,2025-11-25 17:56:30.273,-0.047397,0.414337,291.026878,0.014415,-0.003535,0.975538,0.093766,-0.210184,9.764015,-0.020738,0.013912,-0.038175,0.442386,-0.593207,-1.214586,100335.0000
1764073590376424937,2025-11-25 17:56:30.373,0.176836,0.949894,290.960846,0.031776,-0.015918,0.986418,0.318410,-0.127618,10.058707,0.042010,-0.062293,0.012416,0.434187,-0.595652,-1.215391,100336.0000
1764073590477124326,2025-11-25 17:56:30.473,0.311287,1.157217,290.976463,0.049275,0.010624,0.984884,0.232787,0.044892,9.635794,0.013235,0.015125,-0.009075,0.433244,-0.595606,-1.212970,100334.0000
1764073590575748900,2025-11-25 17:56:30.573,0.285141,0.983257,291.055725,0.024545,0.017800,0.987449,-0.275904,0.180691,9.766881,-0.011067,0.047521,-0.018492,0.436121,-0.596091,-1.213969,100336.0000
1764073590676348159,2025-11-25 17:56:30.673,0.120041,0.757548,291.177681,-0.007465,0.012403,0.986003,-0.338896,0.081062,9.672059,-0.035855,0.021065,-0.021408,0.439498,-0.594165,-1.214047,100337.0000
1764073590776218603,2025-11-25 17:56:30.773,-0.081993,0.682561,291.297112,-0.012864,-0.005789,0.967681,-0.183321,-0.212503,9.646933,-0.025414,-0.008866,-0.019638,0.442881,-0.591284,-1.214141,100340.0000
1764073590876352214,2025-11-25 17:56:30.873,-0.195696,0.772451,291.402374,-0.012139,-0.013710,0.973482,0.083361,-0.121993,9.824697,-0.009221,-0.030011,-0.019490,0.442400,-0.588928,-1.215615,100339.0000
1764073590976908918,2025-11-25 17:56:30.973,-0.223909,0.938657,291.507912,0.001264,-0.010154,0.970357,0.306121,-0.069821,9.824951,-0.003674,-0.026464,-0.014483,0.442369,-0.589010,-1.219466,100337.0000
1764073591075854621,2025-11-25 17:56:31.073,-0.194426,1.085518,291.616066,0.003377,-0.014419,0.981076,0.149402,-0.108353,9.911606,0.014854,-0.026193,-0.026002,0.441928,-0.587965,-1.215141,100339.0000
1764073591177084603,2025-11-25 17:56:31.173,-0.138222,1.136710,291.726265,0.019644,-0.010435,0.983537,0.298711,-0.259605,9.818872,0.015432,0.008548,-0.021245,0.442384,-0.589914,-1.217044,100335.0000
1764073591278164362,2025-11-25 17:56:31.274,-0.076574,0.995766,291.853043,0.026549,-0.006658,0.977472,0.079402,-0.139552,9.771096,0.012670,0.021749,-0.023310,0.449149,-0.587922,-1.214766,100340.0000
1764073591376181399,2025-11-25 17:56:31.373,0.044680,1.159285,291.914940,0.016092,-0.005524,0.976716,0.347096,0.242467,9.818356,0.016218,-0.038174,-0.006719,0.448172,-0.588435,-1.216189,100336.0000
1764073591476223455,2025-11-25 17:56:31.473,0.045086,1.194626,291.975044,0.038212,0.011330,0.979680,0.316556,0.075798,9.745290,-0.011341,0.020867,-0.013329,0.448203,-0.586940,-1.213323,100341.0000
1764073591576245066,2025-11-25 17:56:31.573,-0.087284,0.930580,292.049843,0.027749,0.004092,0.984204,0.110917,-0.067897,9.879811,-0.029390,0.054901,-0.009928,0.452530,-0.585986,-1.214364,100339.0000
1764073591676572936,2025-11-25 17:56:31.673,-0.149401,0.785326,292.083290,-0.009569,-0.019358,0.980378,0.026695,-0.112343,9.846308,0.005104,-0.021605,0.002892,0.451578,-0.585492,-1.213394,100337.0000
1764073591776719325,2025-11-25 17:56:31.773,-0.075590,0.909763,292.057953,-0.000285,-0.016635,0.976299,0.146039,-0.140506,9.811312,0.018392,-0.028553,0.005327,0.453530,-0.583054,-1.211534,100336.0000
1764073591876137047,2025-11-25 17:56:31.873,0.066925,0.982049,292.068474,0.019379,-0.011342,0.975015,0.329356,-0.074029,9.777312,0.027895,0.000382,-0.005353,0.454014,-0.583987,-1.210564,100342.0000
1764073591976561325,2025-11-25 17:56:31.973,0.189526,0.916525,292.099457,0.016636,-0.000698,0.975300,0.066911,0.054446,9.797277,0.016242,0.015953,-0.004269,0.454045,-0.581548,-1.208193,100335.0000
1764073592076646825,2025-11-25 17:56:32.072,0.224384,0.811768,292.119606,0.006374,0.003604,0.982692,0.163682,0.033510,9.875977,-0.001157,0.022409,-0.005131,0.454999,-0.584867,-1.207194,100331.0000
1764073592176723139,2025-11-25 17:56:32.173,0.197949,0.715282,292.121674,0.004346,0.000944,0.979865,0.083013,0.028134,9.779858,-0.003921,0.019849,0.003804,0.455470,-0.585363,-1.208156,100339.0000
1764073592276128047,2025-11-25 17:56:32.273,0.161931,0.672512,292.108749,-0.000933,-0.002554,0.978519,-0.064524,-0.064440,9.783868,-0.009198,0.006740,0.003056,0.456466,-0.581496,-1.206303,100342.0000
1764073592376389991,2025-11-25 17:56:32.373,0.139584,0.689896,292.090347,0.004118,-0.006060,0.977245,0.026328,-0.082232,9.734049,0.002558,-0.002123,0.002717,0.458872,-0.581485,-1.206339,100341.0000
1764073592475963417,2025-11-25 17:56:32.473,0.146808,0.746711,292.075203,-0.002965,-0.007001,0.973105,-0.327784,-0.124019,9.543252,0.002935,-0.036703,0.011447,0.457907,-0.582913,-1.205821,100337.0000
1764073592576373306,2025-11-25 17:56:32.573,0.180418,1.005551,292.009880,-0.001049,-0.002536,0.982406,-0.148820,-0.040725,9.765009,0.007242,-0.068442,0.017340,0.456470,-0.581486,-1.205822,100336.0000
1764073592676648935,2025-11-25 17:56:32.673,0.205685,1.370611,291.900314,0.018156,-0.004073,0.981500,-0.032393,-0.100803,9.585661,0.006702,-0.048685,0.022349,0.451647,-0.582483,-1.206699,100336.0000
1764073592776662843,2025-11-25 17:56:32.773,0.189147,1.487869,291.804337,0.038771,0.001874,0.979479,0.318943,0.001490,9.741694,-0.000476,-0.005140,0.017885,0.448278,-0.581086,-1.207634,100332.0000
1764073592876539139,2025-11-25 17:56:32.873,0.188433,1.515712,291.674019,0.029367,-0.009913,0.973532,0.321111,0.024704,9.772404,0.011715,-0.013757,0.036907,0.447819,-0.579614,-1.205723,100337.0000
1764073592977352991,2025-11-25 17:56:32.973,0.188874,1.422262,291.493958,0.029625,-0.007308,0.973134,0.128213,-0.327012,9.613797,0.013316,-0.017402,0.054407,0.444903,-0.582534,-1.207562,100336.0000
1764073593075845102,2025-11-25 17:56:33.072,0.221663,1.390951,291.216850,0.041453,0.002070,0.985284,0.327799,-0.051528,9.893662,0.013339,0.028022,0.050741,0.444460,-0.582434,-1.202741,100337.0000
1764073593176687250,2025-11-25 17:56:33.173,0.236026,1.140873,290.966980,0.025718,-0.001719,0.981328,0.268395,0.158010,9.931955,0.010238,0.019921,0.051746,0.443499,-0.583851,-1.201742,100341.0000
1764073593276919491,2025-11-25 17:56:33.273,0.262338,0.976097,290.723892,0.021219,0.002836,0.985058,0.253790,0.058709,9.859370,0.004083,0.031165,0.032492,0.441573,-0.584805,-1.201218,100339.0000
1764073593376627157,2025-11-25 17:56:33.373,0.225193,0.738140,290.530457,0.016898,0.005133,0.978746,0.255244,-0.124146,9.777745,-0.014981,0.044183,0.034845,0.442055,-0.587628,-1.199255,100338.0000
1764073593476702805,2025-11-25 17:56:33.473,0.133879,0.465302,290.355568,0.012720,-0.005455,0.971990,0.227280,-0.025638,9.739641,-0.007709,0.046572,0.032660,0.443042,-0.581902,-1.199839,100341.0000
1764073593576436509,2025-11-25 17:56:33.573,0.099108,0.158706,290.173927,0.014609,-0.011400,0.975139,0.018641,-0.070018,9.758838,0.002488,0.056502,0.029903,0.441614,-0.584225,-1.196411,100337.0000
1764073593676636379,2025-11-25 17:56:33.673,0.169420,-0.099920,289.970337,-0.004412,-0.012751,0.977613,-0.072365,-0.202460,9.808106,0.022854,0.029015,0.036514,0.442589,-0.583245,-1.195477,100339.0000
1764073593778060972,2025-11-25 17:56:33.773,0.266108,-0.178265,289.780876,-0.015808,0.002559,0.979526,-0.255853,0.108745,9.782561,0.008840,-0.007464,0.033323,0.441611,-0.587061,-1.194923,100335.0000
1764073593876588083,2025-11-25 17:56:33.873,0.270316,0.027254,289.634445,-0.025959,0.008630,0.978211,-0.211827,0.099543,9.750919,-0.007500,-0.059901,0.019924,0.435818,-0.587138,-1.197245,100338.0000
1764073593976657583,2025-11-25 17:56:33.973,0.208250,0.463323,289.533730,-0.011024,0.001413,0.978846,0.021237,-0.024941,9.792120,-0.009401,-0.085976,0.016143,0.429576,-0.587603,-1.195219,100337.0000
1764073594075923527,2025-11-25 17:56:34.073,0.166517,0.940194,289.451370,0.009445,-0.008425,0.980093,0.210020,-0.101808,9.778452,-0.003240,-0.074790,0.014014,0.426680,-0.584811,-1.198109,100345.0000
1764073594176771323,2025-11-25 17:56:34.173,0.204763,1.270220,289.362297,0.024536,-0.011899,0.979296,0.264963,-0.039799,9.773058,0.014348,-0.037424,0.015062,0.421387,-0.585780,-1.197535,100330.0000
1764073594276882527,2025-11-25 17:56:34.273,0.310532,1.381150,289.264755,0.029394,-0.007770,0.980302,0.272407,-0.146429,9.802803,0.016910,-0.002594,0.015863,0.418024,-0.583894,-1.197995,100339.0000
1764073594376635027,2025-11-25 17:56:34.373,0.430986,1.313436,289.161087,0.021018,-0.000402,0.980212,0.161028,0.065301,9.815694,0.022361,0.020963,0.021033,0.419003,-0.586675,-1.194115,100338.0000
1764073594477313527,2025-11-25 17:56:34.473,0.499290,1.196525,289.060654,0.008348,0.006967,0.978796,0.091706,0.220706,9.794895,0.012341,0.023469,0.015563,0.417089,-0.586185,-1.193131,100337.0000
1764073594576411601,2025-11-25 17:56:34.573,0.500696,1.092262,288.969597,0.005780,0.008484,0.976009,0.078955,0.005813,9.757987,-0.005603,0.014096,0.013323,0.416613,-0.586645,-1.192154,100339.0000
1764073594676278397,2025-11-25 17:56:34.673,0.460389,1.012965,288.881866,0.006855,0.001879,0.974428,0.033997,-0.088260,9.716836,-0.003739,0.012092,0.017332,0.415674,-0.586588,-1.189251,100342.0000
1764073594776207638,2025-11-25 17:56:34.773,0.439247,0.939527,288.783409,0.009976,-0.002540,0.975084,0.037318,0.106518,9.768194,-0.002116,0.009435,0.020130,0.415190,-0.585655,-1.190222,100335.0000
1764073594875884823,2025-11-25 17:56:34.873,0.433175,0.887450,288.664062,0.005446,0.001201,0.980136,0.073883,-0.001549,9.839625,-0.000768,0.003314,0.024018,0.413780,-0.582744,-1.187837,100337.0000
1764073594976738008,2025-11-25 17:56:34.973,0.398391,0.883278,288.513458,0.006425,0.003721,0.982119,0.070375,-0.057927,9.812317,-0.009458,-0.001995,0.032912,0.414734,-0.583706,-1.188318,100346.0000
1764073595075513989,2025-11-25 17:56:35.072,0.336805,0.899296,288.339348,0.011019,0.002044,0.982034,0.075632,0.066732,9.781428,-0.006920,-0.002022,0.032819,0.411374,-0.582755,-1.187801,100339.0000
1764073595175939286,2025-11-25 17:56:35.173,0.275612,0.904628,288.162582,0.008605,-0.002752,0.980871,0.085174,-0.093193,9.819762,-0.008957,-0.005661,0.029984,0.407975,-0.582852,-1.191603,100341.0000
1764073595276394600,2025-11-25 17:56:35.273,0.263959,0.947141,287.994957,0.005992,-0.006853,0.979908,0.068145,-0.121942,9.803320,0.003511,-0.011243,0.030956,0.408005,-0.581358,-1.188737,100337.0000
1764073595376404952,2025-11-25 17:56:35.373,0.307001,1.023244,287.831757,0.006714,-0.005414,0.977334,0.094188,0.037375,9.726403,0.015992,-0.018878,0.030107,0.404153,-0.580440,-1.189657,100342.0000
1764073595478120082,2025-11-25 17:56:35.473,0.361673,1.084567,287.650452,0.016330,0.000837,0.973622,0.243716,0.058572,9.764704,0.006452,-0.007637,0.033067,0.402713,-0.581382,-1.188659,100335.0000
1764073595575727582,2025-11-25 17:56:35.573,0.379364,1.071240,287.447121,0.019915,0.004081,0.975263,0.150918,0.046179,9.801289,-0.003194,0.001523,0.040506,0.396480,-0.579935,-1.186662,100340.0000
1764073595676479878,2025-11-25 17:56:35.673,0.362684,1.017937,287.226395,0.009682,0.000276,0.979300,-0.034634,0.040130,9.768375,-0.003361,0.006276,0.039383,0.396934,-0.584721,-1.187078,100335.0000
1764073595776337471,2025-11-25 17:56:35.773,0.368784,1.017437,286.992172,0.002637,-0.005149,0.983124,0.053451,-0.029954,9.849895,0.010968,-0.009762,0.039533,0.395523,-0.581342,-1.185182,100336.0000
1764073595876173656,2025-11-25 17:56:35.873,0.398527,1.088359,286.758484,0.004784,-0.001763,0.980262,0.121047,-0.074602,9.773007,0.013829,-0.015015,0.044186,0.391681,-0.581339,-1.184162,100342.0000
1764073595976492637,2025-11-25 17:56:35.973,0.415979,1.208755,286.520912,0.008358,0.002209,0.976592,0.113146,0.092327,9.767109,0.001580,-0.024838,0.042110,0.388307,-0.581842,-1.184587,100335.0000
1764073596075791748,2025-11-25 17:56:36.072,0.425647,1.342197,286.268745,0.012045,0.000542,0.977947,0.157926,-0.039890,9.781610,0.007629,-0.020615,0.044255,0.386880,-0.580863,-1.183136,100332.0000
1764073596176644285,2025-11-25 17:56:36.173,0.410311,1.426783,285.998459,0.020519,0.003454,0.978674,0.212839,-0.023587,9.783728,-0.004089,-0.007379,0.053164,0.382075,-0.581810,-1.181606,100335.0000
1764073596277686859,2025-11-25 17:56:36.274,0.369970,1.423159,285.709198,0.021774,0.000601,0.978144,0.087935,0.057153,9.696497,-0.002522,0.005087,0.053371,0.379171,-0.579983,-1.184962,100341.0000
1764073596377215803,2025-11-25 17:56:36.373,0.362727,1.357434,285.402054,0.020596,-0.007905,0.976394,0.225652,-0.109461,9.780999,0.008927,0.013553,0.053287,0.374381,-0.577118,-1.183972,100335.0000
1764073596476633100,2025-11-25 17:56:36.473,0.418619,1.425911,285.015816,0.001583,-0.017565,0.968747,-0.417836,-0.490914,9.557879,0.036942,-0.124929,0.111422,0.373942,-0.577953,-1.178174,100332.0000
1764073596575914248,2025-11-25 17:56:36.573,0.604840,2.104831,284.465958,0.039694,0.004871,0.984708,0.130060,0.213198,9.735750,0.028162,-0.097859,0.100934,0.359469,-0.581891,-1.180309,100341.0000
1764073596676427192,2025-11-25 17:56:36.673,0.684031,2.326291,283.972809,0.071564,0.015987,0.981256,0.741155,0.310065,9.804990,0.001995,-0.011363,0.080707,0.353215,-0.582386,-1.179728,100337.0000
1764073596776250470,2025-11-25 17:56:36.773,0.683735,1.963286,283.516037,0.078385,0.005234,0.986841,1.155633,-0.052655,10.115365,-0.000056,0.093505,0.072312,0.347946,-0.582349,-1.176761,100340.0000
1764073596876344359,2025-11-25 17:56:36.873,0.836376,1.825191,282.911491,0.015524,-0.019162,0.971345,1.472648,0.008453,10.319150,0.039917,-0.009842,0.121524,0.343150,-0.584688,-1.173284,100337.0000
1764073596976403396,2025-11-25 17:56:36.973,1.086509,1.790763,282.250031,0.046363,0.009927,0.982577,0.740865,0.065560,9.943590,0.033994,0.050239,0.106418,0.333997,-0.589942,-1.171143,100341.0000
1764073597075627377,2025-11-25 17:56:37.073,1.212636,1.518341,281.599373,0.040401,0.024696,0.978087,0.233980,0.172511,9.753963,0.015960,0.086816,0.111911,0.329189,-0.589953,-1.170590,100336.0000
1764073597176158970,2025-11-25 17:56:37.173,1.158141,1.063532,280.962196,0.030128,0.028204,0.977190,-0.199296,0.358014,9.638147,-0.021336,0.098854,0.109697,0.322453,-0.592342,-1.169009,100340.0000
1764073597276493340,2025-11-25 17:56:37.273,0.977112,0.526444,280.346313,0.014163,0.021155,0.980778,-0.336243,0.150769,9.788924,-0.036646,0.078417,0.100250,0.320053,-0.591865,-1.168500,100340.0000
1764073597376928470,2025-11-25 17:56:37.373,0.777371,0.035818,279.741707,0.009755,0.000122,0.980888,-0.079403,-0.252805,9.753407,-0.012922,0.065504,0.112533,0.316207,-0.589047,-1.169931,100335.0000
1764073597476490266,2025-11-25 17:56:37.473,0.781313,-0.289329,279.139320,-0.012378,-0.019970,0.971063,0.013276,-0.063981,9.755106,0.029064,0.015495,0.105520,0.308992,-0.590014,-1.168847,100336.0000
1764073597576264488,2025-11-25 17:56:37.573,1.009664,-0.235123,278.569847,-0.022732,-0.003487,0.972629,0.161653,0.165089,9.823762,0.049287,-0.036103,0.095368,0.304150,-0.596245,-1.168680,100336.0000
1764073597676649118,2025-11-25 17:56:37.673,1.219608,0.131934,278.066017,-0.009905,0.018664,0.969708,0.019855,0.188730,9.744880,0.028989,-0.072844,0.081871,0.295982,-0.597664,-1.166131,100342.0000
1764073597775892710,2025-11-25 17:56:37.773,1.300791,0.648829,277.646187,0.006317,0.027303,0.979002,-0.260283,0.447168,9.522634,0.010274,-0.068111,0.065221,0.284430,-0.601029,-1.164465,100335.0000
1764073597876431469,2025-11-25 17:56:37.873,1.212658,1.124855,277.311508,0.020997,0.027161,0.985977,0.275050,0.212309,9.907713,-0.020159,-0.065367,0.051992,0.273336,-0.599738,-1.168656,100335.0000
1764073597976479747,2025-11-25 17:56:37.973,1.090225,1.517530,277.071861,0.016307,0.004551,0.990617,0.203472,-0.161158,9.905308,-0.011393,-0.059735,0.029195,0.266599,-0.599768,-1.168556,100337.0000
1764073598075593191,2025-11-25 17:56:38.073,1.121609,1.803184,276.915176,0.026460,-0.008306,0.986730,0.173742,-0.166995,9.801752,0.033843,-0.037328,0.022004,0.259388,-0.599312,-1.167975,100341.0000
1764073598177072654,2025-11-25 17:56:38.173,1.351974,1.923916,276.855621,0.031714,-0.001196,0.974810,0.250942,0.237082,9.644855,0.048962,-0.011174,0.001474,0.258918,-0.600229,-1.166028,100343.0000
1764073598276618451,2025-11-25 17:56:38.273,1.596686,1.833368,276.882706,0.035341,0.020539,0.970338,0.394699,0.278399,9.740623,0.035740,0.026540,-0.012562,0.259396,-0.603062,-1.164547,100335.0000
1764073598376650210,2025-11-25 17:56:38.373,1.722119,1.614972,276.979279,0.020926,0.027644,0.971433,-0.141334,0.278480,9.640457,0.011751,0.034575,-0.015486,0.261821,-0.603001,-1.162176,100338.0000
1764073598476491599,2025-11-25 17:56:38.473,1.769170,1.441773,277.165558,0.000299,0.020593,0.982719,-0.031932,0.411644,9.815531,0.002309,0.011856,-0.035737,0.263266,-0.607232,-1.159243,100334.0000
1764073598576716265,2025-11-25 17:56:38.573,1.761505,1.368574,277.400246,0.003118,0.025279,0.983229,0.007791,0.097375,9.829885,-0.004919,0.005118,-0.050844,0.263302,-0.601012,-1.158857,100342.0000
1764073598676485858,2025-11-25 17:56:38.673,1.767462,1.293401,277.697311,0.020046,0.016926,0.977215,0.133293,0.266145,9.668476,-0.000096,0.017179,-0.058673,0.271460,-0.602917,-1.160393,100340.0000
1764073598776194987,2025-11-25 17:56:38.773,1.747320,1.088596,278.042030,0.025951,0.028486,0.972319,0.245399,0.424444,9.770147,-0.005536,0.034075,-0.062383,0.276759,-0.602405,-1.159997,100341.0000
1764073598876776191,2025-11-25 17:56:38.873,1.681691,0.840764,278.428627,0.006745,0.020573,0.977014,0.078620,0.057896,9.911505,-0.010703,0.028728,-0.073330,0.282028,-0.602443,-1.162963,100332.0000
1764073598975866450,2025-11-25 17:56:38.973,1.683308,0.755551,278.851753,-0.009935,0.012152,0.981661,-0.036328,0.020435,9.791795,0.008154,-0.002827,-0.070549,0.288293,-0.601916,-1.162100,100334.0000
1764073599075582061,2025-11-25 17:56:39.072,1.723219,0.806462,279.303673,0.003750,0.018643,0.981917,0.165048,0.416727,9.853007,0.002869,-0.008261,-0.079771,0.292158,-0.600446,-1.161216,100332.0000
1764073599176383413,2025-11-25 17:56:39.173,1.739371,0.823163,279.796402,0.017351,0.025295,0.978145,0.227234,0.210329,9.761255,0.001277,-0.000299,-0.091522,0.298423,-0.597562,-1.161834,100335.0000
1764073599276897894,2025-11-25 17:56:39.273,1.688242,0.747992,280.325539,0.018164,0.029406,0.971336,0.149742,0.299948,9.690074,-0.020873,0.019013,-0.094787,0.305649,-0.596564,-1.161474,100340.0000
1764073599377340320,2025-11-25 17:56:39.373,1.569280,0.631271,280.868591,0.015449,0.020934,0.973357,-0.017834,0.208770,9.755039,-0.014603,0.021876,-0.092083,0.314329,-0.592703,-1.161661,100330.0000
1764073599476755709,2025-11-25 17:56:39.473,1.519380,0.520596,281.423195,0.005743,0.010769,0.981379,-0.102381,0.083288,9.769460,0.002928,0.010469,-0.102614,0.320124,-0.590736,-1.160331,100339.0000
1764073599576449376,2025-11-25 17:56:39.573,1.541019,0.421881,281.991066,0.015251,0.021039,0.978180,0.079861,0.270800,9.777157,-0.000145,0.014715,-0.099190,0.328758,-0.592181,-1.162844,100335.0000
1764073599676576209,2025-11-25 17:56:39.673,1.538376,0.325587,282.575630,0.003707,0.021193,0.983560,-0.037732,0.225301,9.842351,0.000889,0.002010,-0.102865,0.335994,-0.590685,-1.161529,100340.0000
1764073599776386357,2025-11-25 17:56:39.773,1.561781,0.361450,283.176102,-0.009448,0.013791,0.984670,-0.107355,0.190098,9.843076,0.009393,-0.031525,-0.107930,0.342725,-0.590197,-1.162598,100343.0000
1764073599875907320,2025-11-25 17:56:39.873,1.584131,0.552248,283.800896,-0.000495,0.024064,0.978247,0.241800,0.250111,9.797022,-0.003013,-0.041657,-0.109469,0.347557,-0.586822,-1.162239,100341.0000
1764073599976925709,2025-11-25 17:56:39.973,1.535041,0.755585,284.458397,0.012926,0.026490,0.972536,0.176015,0.355911,9.703788,-0.017535,-0.041113,-0.117642,0.354785,-0.583934,-1.162871,100330.0000
1764073600075808061,2025-11-25 17:56:40.072,1.432716,0.874479,285.130798,0.021195,0.019991,0.973563,0.335197,0.086861,9.802011,-0.016853,-0.018429,-0.115180,0.360100,-0.580078,-1.162527,100335.0000
1764073600177621579,2025-11-25 17:56:40.173,1.400806,0.927057,285.792175,0.015662,0.008014,0.979275,0.128224,0.001173,9.834648,0.003034,-0.008899,-0.111939,0.368764,-0.577204,-1.164143,100341.0000
1764073600276142523,2025-11-25 17:56:40.273,1.483490,0.966239,286.436897,0.010472,0.010242,0.983344,0.711317,-0.016527,10.052794,0.022555,-0.004933,-0.103164,0.374049,-0.577200,-1.165184,100338.0000
1764073600376210523,2025-11-25 17:56:40.373,1.539214,1.018976,287.059326,0.007028,0.033689,0.978886,0.025565,0.446055,9.754721,-0.006504,-0.015445,-0.105695,0.383202,-0.574771,-1.165355,100337.0000
