Timestamp,Time,Roll,Pitch,Yaw,Magnetic_Field_X,Magnetic_Field_Y,Magnetic_Field_Z,Angular_Rate_X,Angular_Rate_Y,Angular_Rate_Z,Acceleration_X,Acceleration_Y,Acceleration_Z
1764076097842131479,2025-11-25 18:38:17.830,-1.331000,1.745000,251.592000,-0.143400,0.287300,0.122200,0.293000,0.223000,-10.125000,0.000595,0.003233,0.005826
1764076097858209942,2025-11-25 18:38:17.853,-1.331000,1.748000,251.599000,-0.146200,0.279800,0.140100,0.331000,0.240000,-10.116000,-0.000525,0.001497,0.005349
1764076097870208961,2025-11-25 18:38:17.867,-1.331000,1.752000,251.604000,-0.143300,0.288300,0.142300,0.293000,0.242000,-10.126000,-0.000936,0.001962,0.004837
1764076097883712090,2025-11-25 18:38:17.881,-1.332000,1.756000,251.613000,-0.144300,0.284500,0.143300,0.342000,0.225000,-10.165000,-0.001241,0.003880,0.005173
1764076097895796646,2025-11-25 18:38:17.891,-1.333000,1.760000,251.621000,-0.144300,0.282600,0.144400,0.301000,0.239000,-10.096000,-0.000834,0.002977,0.006072
1764076097905560683,2025-11-25 18:38:17.903,-1.334000,1.763000,251.630000,-0.146200,0.283500,0.122100,0.324000,0.208000,-10.144000,-0.002065,0.002614,0.005552
1764076097915482461,2025-11-25 18:38:17.913,-1.336000,1.764000,251.638000,-0.144300,0.283600,0.144400,0.305000,0.225000,-10.124000,-0.001707,0.001902,0.007071
1764076097925802553,2025-11-25 18:38:17.923,-1.338000,1.768000,251.648000,-0.143400,0.282600,0.143400,0.352000,0.245000,-10.148000,-0.002078,0.001113,0.005922
1764076097935765979,2025-11-25 18:38:17.933,-1.340000,1.771000,251.657000,-0.143400,0.283600,0.146500,0.303000,0.249000,-10.179000,-0.000170,0.001060,0.005300
1764076097946598461,2025-11-25 18:38:17.943,-1.343000,1.773000,251.665000,-0.143500,0.283500,0.123300,0.329000,0.234000,-10.164000,-0.001240,0.001784,0.007730
1764076097957902868,2025-11-25 18:38:17.955,-1.345000,1.775000,251.672000,-0.142600,0.282500,0.127600,0.299000,0.271000,-10.104000,-0.000939,0.000887,0.006406
1764076097984336053,2025-11-25 18:38:17.981,-1.346000,1.777000,251.678000,-0.145200,0.283500,0.127400,0.315000,0.229000,-10.098000,0.000019,0.001619,0.005891
1764076098010616757,2025-11-25 18:38:18.008,-1.347000,1.777000,251.686000,-0.142400,0.286400,0.146500,0.308000,0.229000,-10.107000,0.000476,-0.000339,0.005934
1764076098034687664,2025-11-25 18:38:18.032,-1.347000,1.779000,251.696000,-0.143400,0.283600,0.145500,0.297000,0.242000,-10.121000,-0.000116,0.001188,0.004586
1764076098119514868,2025-11-25 18:38:18.117,-1.346000,1.782000,251.713000,-0.143400,0.282600,0.146500,0.291000,0.251000,-10.148000,0.000796,0.000874,0.006657
1764076098128661701,2025-11-25 18:38:18.126,-1.344000,1.781000,251.721000,-0.143400,0.280700,0.145500,0.325000,0.244000,-10.136000,0.000519,0.000422,0.004229
1764076098139005738,2025-11-25 18:38:18.136,-1.343000,1.783000,251.729000,-0.142500,0.286300,0.124400,0.309000,0.216000,-10.128000,0.001526,0.000373,0.005238
1764076098158432942,2025-11-25 18:38:18.156,-1.340000,1.785000,251.737000,-0.144300,0.282600,0.144400,0.327000,0.242000,-10.097000,0.001404,0.000690,0.005290
1764076098184483072,2025-11-25 18:38:18.180,-1.338000,1.786000,251.745000,-0.142700,0.277800,0.125500,0.327000,0.265000,-10.084000,0.001570,0.000728,0.003531
1764076098206344090,2025-11-25 18:38:18.204,-1.335000,1.787000,251.751000,-0.144300,0.284500,0.125400,0.315000,0.229000,-10.131000,0.000832,0.000523,0.005621
1764076098232885590,2025-11-25 18:38:18.230,-1.334000,1.788000,251.756000,-0.142400,0.286400,0.147600,0.298000,0.276000,-10.105000,0.001214,0.001998,0.004487
1764076098261455664,2025-11-25 18:38:18.257,-1.332000,1.790000,251.762000,-0.142500,0.282600,0.144500,0.328000,0.229000,-10.143000,0.002532,0.000484,0.003296
1764076098286369275,2025-11-25 18:38:18.282,-1.330000,1.789000,251.769000,-0.142400,0.286400,0.142300,0.305000,0.241000,-10.149000,0.002000,0.000787,0.004887
1764076098306669516,2025-11-25 18:38:18.304,-1.329000,1.790000,251.776000,-0.142500,0.284500,0.143400,0.337000,0.256000,-10.123000,0.000565,0.000239,0.004106
1764076098338856775,2025-11-25 18:38:18.334,-1.330000,1.789000,251.780000,-0.142500,0.282600,0.145500,0.321000,0.221000,-10.116000,-0.000420,-0.000567,0.003155
1764076098361770553,2025-11-25 18:38:18.358,-1.329000,1.789000,251.786000,-0.145100,0.286400,0.142200,0.330000,0.221000,-10.131000,-0.000460,-0.000707,0.004292
1764076098391581016,2025-11-25 18:38:18.389,-1.329000,1.787000,251.793000,-0.142400,0.285400,0.145500,0.307000,0.248000,-10.108000,-0.000621,-0.001569,0.003763
1764076098411109683,2025-11-25 18:38:18.407,-1.330000,1.786000,251.801000,-0.146000,0.287400,0.142100,0.325000,0.215000,-10.096000,-0.000221,-0.002496,0.004413
1764076098433736386,2025-11-25 18:38:18.430,-1.332000,1.783000,251.811000,-0.143300,0.285500,0.144400,0.347000,0.227000,-10.124000,-0.001328,-0.001616,0.006162
1764076098458267682,2025-11-25 18:38:18.455,-1.333000,1.781000,251.817000,-0.144400,0.280600,0.121200,0.287000,0.230000,-10.100000,-0.002309,-0.002009,0.005283
1764076098484244534,2025-11-25 18:38:18.481,-1.334000,1.775000,251.825000,-0.142500,0.286300,0.127500,0.338000,0.220000,-10.132000,-0.002430,-0.003952,0.006127
1764076098509358053,2025-11-25 18:38:18.505,-1.336000,1.770000,251.834000,-0.141700,0.279700,0.145600,0.308000,0.241000,-10.117000,-0.002343,-0.004313,0.007156
1764076098534056682,2025-11-25 18:38:18.531,-1.340000,1.764000,251.845000,-0.144300,0.281700,0.145400,0.350000,0.216000,-10.121000,-0.003442,-0.004650,0.007501
1764076098558883423,2025-11-25 18:38:18.556,-1.344000,1.757000,251.854000,-0.141700,0.280600,0.135000,0.291000,0.219000,-10.121000,-0.002253,-0.005647,0.006140
1764076098586634794,2025-11-25 18:38:18.583,-1.347000,1.751000,251.864000,-0.145100,0.287400,0.143200,0.318000,0.249000,-10.124000,-0.001999,-0.005168,0.004613
1764076098607850923,2025-11-25 18:38:18.605,-1.351000,1.743000,251.875000,-0.144300,0.283600,0.141200,0.309000,0.227000,-10.116000,-0.003616,-0.005469,0.006680
1764076098637742442,2025-11-25 18:38:18.633,-1.354000,1.736000,251.886000,-0.143400,0.287300,0.123300,0.303000,0.248000,-10.125000,-0.001881,-0.006136,0.009313
1764076098660829145,2025-11-25 18:38:18.658,-1.357000,1.728000,251.894000,-0.141600,0.284400,0.123400,0.268000,0.263000,-10.104000,-0.002265,-0.005364,0.006300
1764076098685453423,2025-11-25 18:38:18.683,-1.359000,1.721000,251.904000,-0.142600,0.281600,0.125500,0.279000,0.243000,-10.117000,-0.001487,-0.004061,0.006816
1764076098708549127,2025-11-25 18:38:18.705,-1.361000,1.713000,251.914000,-0.142500,0.285400,0.141300,0.284000,0.250000,-10.123000,-0.001117,-0.004023,0.007504
1764076098734328349,2025-11-25 18:38:18.731,-1.362000,1.709000,251.922000,-0.141700,0.281500,0.124500,0.284000,0.268000,-10.104000,-0.000477,-0.003682,0.005000
1764076098759448127,2025-11-25 18:38:18.757,-1.364000,1.705000,251.931000,-0.142400,0.287300,0.147600,0.279000,0.226000,-10.118000,-0.000443,-0.000623,0.006304
1764076098785381034,2025-11-25 18:38:18.782,-1.364000,1.703000,251.940000,-0.143500,0.280700,0.140200,0.256000,0.250000,-10.083000,-0.000971,-0.001558,0.006237
1764076098809770460,2025-11-25 18:38:18.806,-1.363000,1.702000,251.948000,-0.144300,0.280700,0.147500,0.313000,0.244000,-10.096000,0.000331,0.000814,0.005114
1764076098837772979,2025-11-25 18:38:18.834,-1.362000,1.703000,251.958000,-0.141700,0.280600,0.127600,0.278000,0.240000,-10.156000,0.000853,0.001659,0.005041
1764076098861156330,2025-11-25 18:38:18.858,-1.360000,1.706000,251.965000,-0.144400,0.281600,0.124300,0.314000,0.271000,-10.117000,0.000373,0.003159,0.003306
1764076098887009553,2025-11-25 18:38:18.884,-1.357000,1.710000,251.971000,-0.140700,0.282500,0.145600,0.268000,0.243000,-10.128000,0.002002,0.003232,0.003729
1764076098909147534,2025-11-25 18:38:18.906,-1.355000,1.718000,251.977000,-0.142500,0.285400,0.124400,0.323000,0.237000,-10.117000,0.001620,0.005827,0.004946
1764076098937943812,2025-11-25 18:38:18.934,-1.352000,1.725000,251.983000,-0.141500,0.285400,0.144500,0.276000,0.283000,-10.107000,0.000936,0.005294,0.003051
1764076098959223830,2025-11-25 18:38:18.956,-1.350000,1.735000,251.991000,-0.143400,0.284500,0.145400,0.303000,0.229000,-10.110000,0.002408,0.008484,0.005490
1764076098986398312,2025-11-25 18:38:18.983,-1.347000,1.744000,251.997000,-0.143300,0.290200,0.139100,0.301000,0.250000,-10.122000,0.003143,0.007360,0.004684
1764076099009139238,2025-11-25 18:38:19.006,-1.342000,1.755000,252.004000,-0.143400,0.282600,0.143300,0.307000,0.229000,-10.147000,0.003295,0.007006,0.005787
1764076099036501090,2025-11-25 18:38:19.033,-1.339000,1.764000,252.011000,-0.142500,0.285400,0.122300,0.327000,0.248000,-10.155000,0.003435,0.007737,0.006119
1764076099097438052,2025-11-25 18:38:19.094,-1.331000,1.785000,252.026000,-0.141600,0.281600,0.144500,0.324000,0.234000,-10.137000,0.001964,0.007423,0.004775
1764076099106811608,2025-11-25 18:38:19.104,-1.328000,1.796000,252.033000,-0.140700,0.285300,0.124500,0.299000,0.213000,-10.118000,0.002265,0.006159,0.005981
1764076099138185108,2025-11-25 18:38:19.134,-1.326000,1.803000,252.039000,-0.142400,0.290100,0.127500,0.329000,0.218000,-10.112000,0.001324,0.005086,0.004904
1764076099158851145,2025-11-25 18:38:19.156,-1.323000,1.810000,252.049000,-0.141600,0.288200,0.123400,0.312000,0.235000,-10.093000,-0.000257,0.004195,0.006772
1764076099185891330,2025-11-25 18:38:19.183,-1.322000,1.814000,252.057000,-0.143300,0.285500,0.145400,0.344000,0.225000,-10.154000,0.001143,0.001746,0.006928
1764076099209428478,2025-11-25 18:38:19.206,-1.321000,1.818000,252.065000,-0.142400,0.285400,0.145500,0.335000,0.252000,-10.117000,-0.000037,0.000404,0.005278
1764076099237304349,2025-11-25 18:38:19.234,-1.321000,1.819000,252.075000,-0.143500,0.282500,0.127500,0.357000,0.185000,-10.145000,0.000376,-0.000064,0.006828
1764076099259862664,2025-11-25 18:38:19.257,-1.320000,1.818000,252.082000,-0.143400,0.284400,0.126500,0.319000,0.224000,-10.102000,-0.000367,-0.000596,0.005880
1764076099286193663,2025-11-25 18:38:19.283,-1.320000,1.817000,252.092000,-0.142500,0.282600,0.148700,0.333000,0.220000,-10.091000,-0.000914,-0.003307,0.005207
1764076099308674126,2025-11-25 18:38:19.305,-1.322000,1.814000,252.100000,-0.142400,0.288300,0.144400,0.292000,0.218000,-10.125000,-0.000834,-0.003232,0.007045
1764076099336430645,2025-11-25 18:38:19.333,-1.323000,1.809000,252.109000,-0.142500,0.286300,0.123300,0.345000,0.230000,-10.128000,-0.001574,-0.002838,0.005216
1764076099359856089,2025-11-25 18:38:19.357,-1.325000,1.803000,252.117000,-0.143300,0.287400,0.147500,0.308000,0.225000,-10.152000,-0.001807,-0.004250,0.005946
1764076099384720663,2025-11-25 18:38:19.381,-1.328000,1.797000,252.124000,-0.140800,0.278700,0.145600,0.336000,0.227000,-10.127000,-0.002773,-0.004294,0.006794
1764076099410122441,2025-11-25 18:38:19.407,-1.330000,1.789000,252.132000,-0.140800,0.279700,0.144600,0.324000,0.258000,-10.145000,-0.000680,-0.006039,0.004983
1764076099433398571,2025-11-25 18:38:19.430,-1.332000,1.782000,252.143000,-0.139700,0.288200,0.145600,0.291000,0.216000,-10.131000,-0.002031,-0.006102,0.005962
1764076099461549182,2025-11-25 18:38:19.459,-1.334000,1.774000,252.153000,-0.140700,0.284400,0.141400,0.329000,0.231000,-10.106000,-0.000787,-0.006168,0.005495
1764076099484843145,2025-11-25 18:38:19.482,-1.336000,1.768000,252.160000,-0.142400,0.286400,0.142300,0.308000,0.231000,-10.114000,-0.001354,-0.005963,0.003368
1764076099510864904,2025-11-25 18:38:19.508,-1.337000,1.759000,252.168000,-0.141700,0.282500,0.122300,0.327000,0.213000,-10.180000,-0.001261,-0.005754,0.005434
1764076099537098349,2025-11-25 18:38:19.534,-1.338000,1.752000,252.174000,-0.140600,0.288200,0.124500,0.275000,0.269000,-10.118000,-0.000310,-0.006535,0.004495
1764076099563049311,2025-11-25 18:38:19.560,-1.340000,1.745000,252.183000,-0.139800,0.285300,0.128700,0.338000,0.242000,-10.112000,-0.000798,-0.005541,0.006211
1764076099583555756,2025-11-25 18:38:19.580,-1.340000,1.740000,252.190000,-0.142400,0.286400,0.145500,0.291000,0.249000,-10.128000,-0.000769,-0.003711,0.004197
1764076099609652552,2025-11-25 18:38:19.606,-1.341000,1.734000,252.197000,-0.142500,0.284500,0.146500,0.314000,0.236000,-10.088000,-0.000182,-0.003840,0.003316
1764076099637826293,2025-11-25 18:38:19.634,-1.341000,1.730000,252.205000,-0.143300,0.286400,0.143300,0.305000,0.218000,-10.135000,-0.000528,-0.002066,0.005507
1764076099662029367,2025-11-25 18:38:19.658,-1.341000,1.726000,252.211000,-0.142500,0.281600,0.147600,0.310000,0.225000,-10.123000,-0.000154,-0.002502,0.005945
1764076099685941330,2025-11-25 18:38:19.683,-1.341000,1.723000,252.218000,-0.140700,0.283400,0.126600,0.270000,0.235000,-10.129000,-0.000234,-0.001041,0.003957
1764076099709253830,2025-11-25 18:38:19.706,-1.341000,1.721000,252.227000,-0.140500,0.290200,0.144500,0.313000,0.209000,-10.138000,-0.000116,-0.000768,0.005783
1764076099737749626,2025-11-25 18:38:19.735,-1.341000,1.720000,252.236000,-0.139800,0.283500,0.146700,0.296000,0.252000,-10.120000,0.000015,-0.001207,0.005620
1764076099760811737,2025-11-25 18:38:19.758,-1.341000,1.721000,252.244000,-0.140700,0.285300,0.123400,0.298000,0.227000,-10.111000,0.000453,0.000951,0.005913
1764076099783309959,2025-11-25 18:38:19.780,-1.341000,1.721000,252.253000,-0.140700,0.283500,0.137100,0.286000,0.237000,-10.122000,-0.000634,0.001896,0.006077
1764076099808276959,2025-11-25 18:38:19.805,-1.341000,1.724000,252.260000,-0.142500,0.283500,0.144400,0.289000,0.252000,-10.110000,-0.001739,0.001914,0.004451
1764076099837221071,2025-11-25 18:38:19.834,-1.342000,1.725000,252.269000,-0.142500,0.284500,0.143400,0.311000,0.203000,-10.110000,-0.000488,0.001783,0.006986
1764076099861365256,2025-11-25 18:38:19.858,-1.341000,1.730000,252.277000,-0.141600,0.286300,0.118100,0.286000,0.249000,-10.101000,-0.000379,0.002555,0.005585
1764076099887060645,2025-11-25 18:38:19.883,-1.341000,1.732000,252.286000,-0.141600,0.285400,0.125500,0.318000,0.231000,-10.119000,-0.000480,0.003207,0.004782
1764076099910648552,2025-11-25 18:38:19.908,-1.342000,1.738000,252.296000,-0.140700,0.285300,0.126600,0.280000,0.240000,-10.145000,-0.000888,0.002586,0.007639
1764076099935272663,2025-11-25 18:38:19.932,-1.342000,1.742000,252.304000,-0.143400,0.287300,0.125400,0.319000,0.241000,-10.108000,-0.000754,0.003151,0.005702
1764076099963309422,2025-11-25 18:38:19.960,-1.343000,1.747000,252.314000,-0.139800,0.282500,0.145600,0.301000,0.216000,-10.123000,-0.000250,0.002917,0.006095
1764076099986150163,2025-11-25 18:38:19.983,-1.344000,1.752000,252.325000,-0.142500,0.282600,0.144400,0.326000,0.215000,-10.108000,-0.000683,0.003856,0.007330
1764076100009695496,2025-11-25 18:38:20.007,-1.344000,1.757000,252.332000,-0.140700,0.282500,0.140300,0.301000,0.256000,-10.056000,-0.000130,0.003018,0.005118
1764076100037895163,2025-11-25 18:38:20.033,-1.344000,1.761000,252.343000,-0.141600,0.284500,0.141300,0.332000,0.217000,-10.149000,-0.000672,0.002713,0.007231
1764076100101051107,2025-11-25 18:38:20.098,-1.344000,1.769000,252.359000,-0.139700,0.286300,0.145600,0.313000,0.235000,-10.109000,-0.001791,0.002143,0.004871
1764076100110283922,2025-11-25 18:38:20.108,-1.343000,1.772000,252.367000,-0.140600,0.286300,0.143400,0.334000,0.220000,-10.121000,0.001398,0.000957,0.006160
1764076100134443941,2025-11-25 18:38:20.131,-1.343000,1.776000,252.374000,-0.140700,0.284400,0.140300,0.312000,0.243000,-10.122000,-0.000254,0.001395,0.005156
1764076100162124922,2025-11-25 18:38:20.159,-1.342000,1.777000,252.384000,-0.140700,0.282500,0.143500,0.322000,0.226000,-10.139000,0.000042,0.001083,0.006826
1764076100187036570,2025-11-25 18:38:20.184,-1.341000,1.779000,252.392000,-0.139800,0.287200,0.122400,0.322000,0.253000,-10.146000,-0.000049,0.001322,0.005346
1764076100208885570,2025-11-25 18:38:20.206,-1.341000,1.780000,252.400000,-0.139800,0.284400,0.126600,0.329000,0.243000,-10.112000,-0.000276,0.001070,0.004729
1764076100237589107,2025-11-25 18:38:20.234,-1.341000,1.781000,252.407000,-0.142400,0.288300,0.146500,0.334000,0.229000,-10.107000,0.000912,-0.001537,0.004673
1764076100261681663,2025-11-25 18:38:20.258,-1.338000,1.780000,252.414000,-0.140700,0.284400,0.124500,0.333000,0.242000,-10.117000,0.001758,-0.001872,0.005092
1764076100286053478,2025-11-25 18:38:20.283,-1.337000,1.780000,252.420000,-0.143400,0.281600,0.143300,0.309000,0.242000,-10.128000,0.000962,-0.002166,0.003461
1764076100311771811,2025-11-25 18:38:20.305,-1.336000,1.778000,252.425000,-0.138800,0.289100,0.125600,0.326000,0.216000,-10.140000,0.002580,-0.001220,0.004974
1764076100337837422,2025-11-25 18:38:20.334,-1.334000,1.775000,252.432000,-0.140700,0.283500,0.147700,0.300000,0.255000,-10.119000,0.001082,-0.001970,0.003031
1764076100360726607,2025-11-25 18:38:20.357,-1.331000,1.772000,252.441000,-0.140700,0.284400,0.145600,0.340000,0.209000,-10.111000,0.002530,-0.002043,0.005550
1764076100385723163,2025-11-25 18:38:20.383,-1.329000,1.769000,252.450000,-0.138700,0.290100,0.144600,0.289000,0.205000,-10.133000,0.002595,-0.002960,0.005585
1764076100409075941,2025-11-25 18:38:20.406,-1.326000,1.765000,252.460000,-0.140700,0.282600,0.149800,0.321000,0.258000,-10.105000,0.001176,-0.003806,0.004199
1764076100438600089,2025-11-25 18:38:20.436,-1.324000,1.760000,252.469000,-0.138900,0.282500,0.128800,0.322000,0.206000,-10.149000,0.001328,-0.002756,0.007559
1764076100459727774,2025-11-25 18:38:20.457,-1.322000,1.756000,252.477000,-0.140700,0.284400,0.129800,0.334000,0.234000,-10.192000,0.001144,-0.002488,0.005441
1764076100482170107,2025-11-25 18:38:20.480,-1.320000,1.752000,252.487000,-0.139800,0.283500,0.145600,0.307000,0.223000,-10.114000,0.000997,-0.002932,0.006233
1764076100508813033,2025-11-25 18:38:20.506,-1.319000,1.749000,252.494000,-0.141600,0.284400,0.126500,0.300000,0.234000,-10.141000,0.001022,-0.002921,0.008150
1764076100536167348,2025-11-25 18:38:20.533,-1.317000,1.746000,252.504000,-0.138000,0.286200,0.124600,0.310000,0.241000,-10.122000,0.000822,-0.001999,0.004255
1764076100560030144,2025-11-25 18:38:20.557,-1.316000,1.745000,252.513000,-0.138900,0.281600,0.145700,0.290000,0.227000,-10.118000,0.000411,-0.001598,0.004558
1764076100585303033,2025-11-25 18:38:20.582,-1.315000,1.742000,252.524000,-0.139900,0.282500,0.126700,0.316000,0.245000,-10.103000,0.000438,-0.001097,0.006696
1764076100609745237,2025-11-25 18:38:20.606,-1.315000,1.743000,252.532000,-0.141700,0.281500,0.123400,0.271000,0.245000,-10.141000,-0.001524,0.000482,0.004387
1764076100635289940,2025-11-25 18:38:20.632,-1.315000,1.742000,252.541000,-0.140700,0.286300,0.123400,0.319000,0.214000,-10.124000,0.000311,0.000484,0.006051
1764076100659666329,2025-11-25 18:38:20.657,-1.315000,1.743000,252.548000,-0.139700,0.287300,0.143500,0.294000,0.227000,-10.135000,-0.001718,0.001230,0.006092
1764076100684137570,2025-11-25 18:38:20.681,-1.316000,1.744000,252.554000,-0.139600,0.289200,0.147700,0.314000,0.231000,-10.097000,-0.001350,0.000866,0.004444
1764076100708223385,2025-11-25 18:38:20.705,-1.317000,1.746000,252.564000,-0.139800,0.285300,0.126600,0.291000,0.217000,-10.106000,-0.000855,0.001411,0.005759
1764076100736285014,2025-11-25 18:38:20.733,-1.318000,1.748000,252.570000,-0.139700,0.285400,0.145600,0.323000,0.239000,-10.078000,-0.000766,0.000978,0.004159
1764076100760483459,2025-11-25 18:38:20.757,-1.320000,1.752000,252.577000,-0.140700,0.281600,0.146600,0.319000,0.232000,-10.096000,-0.000879,0.001913,0.005280
1764076100784597292,2025-11-25 18:38:20.781,-1.322000,1.756000,252.586000,-0.138900,0.282500,0.155200,0.318000,0.230000,-10.112000,-0.001254,0.001446,0.006502
1764076100810070940,2025-11-25 18:38:20.806,-1.325000,1.758000,252.593000,-0.139800,0.282500,0.148800,0.310000,0.249000,-10.133000,-0.002164,0.001736,0.003870
1764076100837377348,2025-11-25 18:38:20.835,-1.327000,1.762000,252.600000,-0.137800,0.291100,0.143500,0.324000,0.223000,-10.151000,-0.001528,0.001986,0.005568
1764076100862144274,2025-11-25 18:38:20.859,-1.330000,1.764000,252.609000,-0.140700,0.285300,0.124500,0.291000,0.254000,-10.135000,-0.001589,0.001902,0.005023
1764076100887877181,2025-11-25 18:38:20.885,-1.332000,1.766000,252.617000,-0.138600,0.294900,0.144500,0.305000,0.233000,-10.111000,-0.002024,0.001207,0.004006
1764076100909624218,2025-11-25 18:38:20.906,-1.335000,1.768000,252.626000,-0.138800,0.286300,0.144600,0.327000,0.225000,-10.092000,-0.001511,0.001657,0.005671
1764076100934972681,2025-11-25 18:38:20.932,-1.337000,1.769000,252.634000,-0.137000,0.287200,0.144700,0.312000,0.253000,-10.115000,-0.001095,0.001191,0.005196
1764076100961711570,2025-11-25 18:38:20.959,-1.339000,1.770000,252.644000,-0.139600,0.290100,0.143500,0.317000,0.235000,-10.127000,-0.001897,0.000005,0.004751
1764076100986620385,2025-11-25 18:38:20.983,-1.341000,1.771000,252.652000,-0.138900,0.284400,0.143600,0.319000,0.232000,-10.112000,-0.002135,0.000110,0.005682
1764076101011096088,2025-11-25 18:38:21.008,-1.343000,1.771000,252.660000,-0.138000,0.284400,0.146800,0.311000,0.254000,-10.104000,-0.001429,-0.000716,0.004419
1764076101035659311,2025-11-25 18:38:21.032,-1.344000,1.770000,252.668000,-0.138900,0.282500,0.142500,0.287000,0.245000,-10.126000,-0.001489,-0.001646,0.006754
1764076101102141903,2025-11-25 18:38:21.100,-1.347000,1.768000,252.680000,-0.138800,0.289100,0.122400,0.303000,0.262000,-10.129000,-0.001927,-0.001233,0.004128
1764076101111472811,2025-11-25 18:38:21.109,-1.348000,1.768000,252.688000,-0.139700,0.286300,0.142400,0.334000,0.205000,-10.146000,0.000533,-0.000830,0.005774
1764076101137756385,2025-11-25 18:38:21.134,-1.348000,1.767000,252.694000,-0.138800,0.287300,0.144600,0.287000,0.269000,-10.100000,0.000413,-0.000712,0.004931
1764076101159587459,2025-11-25 18:38:21.156,-1.348000,1.767000,252.702000,-0.138800,0.289200,0.144600,0.333000,0.231000,-10.140000,-0.000896,-0.000022,0.005805
1764076101182527551,2025-11-25 18:38:21.180,-1.348000,1.766000,252.708000,-0.141600,0.285300,0.117100,0.314000,0.217000,-10.130000,0.000665,-0.000758,0.006080
1764076101209528792,2025-11-25 18:38:21.206,-1.346000,1.765000,252.713000,-0.137900,0.286300,0.138300,0.308000,0.244000,-10.121000,0.001211,-0.000584,0.004640
1764076101236959773,2025-11-25 18:38:21.234,-1.345000,1.764000,252.722000,-0.137900,0.288100,0.122500,0.313000,0.232000,-10.136000,0.000882,-0.000033,0.005774
1764076101261980829,2025-11-25 18:38:21.259,-1.343000,1.763000,252.727000,-0.138900,0.284400,0.125600,0.274000,0.239000,-10.157000,0.003094,-0.000351,0.004072
1764076101286733236,2025-11-25 18:38:21.284,-1.340000,1.762000,252.733000,-0.139700,0.289200,0.141400,0.344000,0.268000,-10.143000,0.002610,-0.001212,0.003467
1764076101310188255,2025-11-25 18:38:21.307,-1.339000,1.762000,252.741000,-0.137100,0.284400,0.144700,0.318000,0.233000,-10.125000,0.001699,-0.000695,0.006914
1764076101337409792,2025-11-25 18:38:21.334,-1.335000,1.761000,252.748000,-0.138900,0.285300,0.125600,0.332000,0.252000,-10.120000,0.003066,-0.000391,0.004018
1764076101361611514,2025-11-25 18:38:21.358,-1.332000,1.760000,252.756000,-0.137100,0.286200,0.129900,0.310000,0.235000,-10.141000,0.002110,-0.000712,0.004549
1764076101386151218,2025-11-25 18:38:21.383,-1.329000,1.758000,252.763000,-0.137900,0.291000,0.128800,0.323000,0.220000,-10.154000,0.001408,-0.001368,0.005479
1764076101409887644,2025-11-25 18:38:21.407,-1.325000,1.757000,252.771000,-0.138900,0.283500,0.146700,0.284000,0.254000,-10.133000,0.001481,-0.001974,0.004861
1764076101439083662,2025-11-25 18:38:21.435,-1.322000,1.754000,252.779000,-0.137800,0.291100,0.144600,0.319000,0.228000,-10.134000,0.002114,-0.001989,0.005989
1764076101458423681,2025-11-25 18:38:21.456,-1.319000,1.753000,252.787000,-0.138800,0.285400,0.148800,0.297000,0.226000,-10.114000,0.001667,-0.001485,0.004990
1764076101485422921,2025-11-25 18:38:21.482,-1.316000,1.751000,252.795000,-0.140700,0.286300,0.129700,0.325000,0.229000,-10.117000,0.001767,-0.000442,0.005052
1764076101508190273,2025-11-25 18:38:21.505,-1.313000,1.749000,252.803000,-0.138000,0.282500,0.146800,0.305000,0.224000,-10.106000,0.001307,-0.001511,0.005019
1764076101535116699,2025-11-25 18:38:21.532,-1.311000,1.747000,252.809000,-0.138100,0.282400,0.121500,0.315000,0.245000,-10.106000,0.001363,-0.001535,0.005532
1764076101559735958,2025-11-25 18:38:21.557,-1.310000,1.745000,252.816000,-0.138900,0.283500,0.142500,0.297000,0.219000,-10.133000,0.001116,-0.000948,0.003646
1764076101584473347,2025-11-25 18:38:21.581,-1.309000,1.745000,252.821000,-0.138900,0.285300,0.127700,0.298000,0.238000,-10.122000,0.000526,-0.001927,0.005320
1764076101609403032,2025-11-25 18:38:21.606,-1.308000,1.744000,252.827000,-0.138000,0.284400,0.146800,0.295000,0.235000,-10.109000,0.000015,-0.001322,0.003099
1764076101637187736,2025-11-25 18:38:21.633,-1.308000,1.744000,252.836000,-0.137000,0.285400,0.150000,0.297000,0.227000,-10.133000,-0.002146,0.000058,0.004969
1764076101663336347,2025-11-25 18:38:21.660,-1.309000,1.742000,252.842000,-0.136100,0.286300,0.144700,0.315000,0.236000,-10.112000,-0.000754,0.000214,0.003964
1764076101684509736,2025-11-25 18:38:21.681,-1.310000,1.743000,252.850000,-0.137900,0.288100,0.124600,0.283000,0.239000,-10.119000,-0.001415,0.000798,0.004139
1764076101709339995,2025-11-25 18:38:21.706,-1.312000,1.743000,252.856000,-0.138000,0.284300,0.124600,0.323000,0.202000,-10.109000,-0.001679,-0.000918,0.005083
1764076101735820440,2025-11-25 18:38:21.732,-1.314000,1.743000,252.864000,-0.138900,0.285300,0.124600,0.285000,0.235000,-10.065000,-0.002201,0.000191,0.005807
1764076101763225736,2025-11-25 18:38:21.761,-1.317000,1.744000,252.871000,-0.136100,0.285300,0.145800,0.335000,0.221000,-10.107000,-0.001964,0.000138,0.003992
1764076101785437755,2025-11-25 18:38:21.782,-1.321000,1.745000,252.878000,-0.138800,0.286300,0.141400,0.289000,0.240000,-10.131000,-0.001865,0.001045,0.005178
1764076101807561866,2025-11-25 18:38:21.805,-1.325000,1.748000,252.885000,-0.135200,0.287200,0.146900,0.323000,0.218000,-10.103000,-0.003086,0.002931,0.004157
1764076101837712403,2025-11-25 18:38:21.834,-1.327000,1.749000,252.893000,-0.138900,0.288200,0.122400,0.300000,0.239000,-10.129000,-0.002290,0.000959,0.005813
1764076101863075699,2025-11-25 18:38:21.859,-1.331000,1.752000,252.900000,-0.139700,0.285400,0.147700,0.328000,0.237000,-10.131000,-0.002340,0.001753,0.005067
1764076101882557088,2025-11-25 18:38:21.879,-1.334000,1.754000,252.909000,-0.137000,0.291000,0.123600,0.298000,0.268000,-10.134000,-0.001973,0.001151,0.004621
1764076101909528421,2025-11-25 18:38:21.907,-1.338000,1.758000,252.919000,-0.138800,0.285400,0.144600,0.317000,0.228000,-10.138000,-0.001682,0.001204,0.006367
1764076101936664773,2025-11-25 18:38:21.933,-1.341000,1.759000,252.927000,-0.137100,0.283400,0.142600,0.304000,0.253000,-10.107000,-0.003676,0.001820,0.005915
1764076101961726773,2025-11-25 18:38:21.959,-1.343000,1.762000,252.934000,-0.137900,0.286300,0.143600,0.332000,0.232000,-10.131000,-0.001202,0.001263,0.005502
1764076101985924236,2025-11-25 18:38:21.983,-1.346000,1.764000,252.941000,-0.138000,0.284400,0.142600,0.302000,0.232000,-10.140000,-0.001758,0.001358,0.004645
1764076102009585662,2025-11-25 18:38:22.007,-1.346000,1.767000,252.947000,-0.137100,0.285300,0.124700,0.310000,0.248000,-10.098000,-0.001601,0.001744,0.004936
1764076102036007162,2025-11-25 18:38:22.033,-1.346000,1.769000,252.955000,-0.137900,0.288200,0.144600,0.318000,0.245000,-10.097000,0.000005,0.001796,0.004298
1764076102099455884,2025-11-25 18:38:22.097,-1.346000,1.774000,252.969000,-0.137700,0.293900,0.147700,0.326000,0.274000,-10.126000,0.000036,0.001348,0.004097
1764076102109356977,2025-11-25 18:38:22.107,-1.346000,1.777000,252.976000,-0.137100,0.283400,0.144700,0.328000,0.235000,-10.132000,0.000630,0.000504,0.003880
1764076102139793662,2025-11-25 18:38:22.135,-1.346000,1.778000,252.982000,-0.137000,0.286300,0.143600,0.329000,0.265000,-10.118000,0.001267,0.000784,0.003306
1764076102160146069,2025-11-25 18:38:22.157,-1.344000,1.780000,252.990000,-0.138000,0.282500,0.143600,0.291000,0.268000,-10.110000,0.002084,-0.000766,0.005039
1764076102185529310,2025-11-25 18:38:22.183,-1.342000,1.780000,252.996000,-0.138900,0.286300,0.124600,0.322000,0.230000,-10.128000,0.002261,0.000368,0.005010
1764076102209059791,2025-11-25 18:38:22.206,-1.339000,1.779000,253.000000,-0.139800,0.285300,0.126600,0.312000,0.268000,-10.154000,0.001740,-0.001504,0.002913
1764076102235819421,2025-11-25 18:38:22.232,-1.337000,1.779000,253.006000,-0.137900,0.285300,0.141500,0.334000,0.213000,-10.152000,0.001217,-0.000714,0.005202
1764076102261129032,2025-11-25 18:38:22.258,-1.334000,1.777000,253.011000,-0.138000,0.284400,0.143600,0.308000,0.248000,-10.152000,0.001614,-0.002488,0.003976
1764076102285027588,2025-11-25 18:38:22.282,-1.330000,1.775000,253.017000,-0.136000,0.291000,0.142600,0.331000,0.226000,-10.084000,0.001627,-0.001631,0.003211
1764076102310008976,2025-11-25 18:38:22.307,-1.328000,1.773000,253.025000,-0.138000,0.284400,0.139400,0.304000,0.240000,-10.095000,0.001619,-0.000700,0.006251
1764076102335098791,2025-11-25 18:38:22.332,-1.324000,1.771000,253.030000,-0.136100,0.288100,0.124700,0.315000,0.215000,-10.128000,0.003053,-0.002259,0.004333
1764076102359217217,2025-11-25 18:38:22.357,-1.321000,1.767000,253.038000,-0.137000,0.286300,0.140500,0.341000,0.194000,-10.131000,0.002029,-0.002672,0.004863
1764076102384439384,2025-11-25 18:38:22.381,-1.317000,1.763000,253.044000,-0.137900,0.287300,0.145700,0.286000,0.241000,-10.137000,0.000818,-0.003233,0.005657
1764076102408459754,2025-11-25 18:38:22.406,-1.314000,1.758000,253.050000,-0.136200,0.284300,0.126800,0.336000,0.253000,-10.128000,0.001772,-0.003497,0.003638
1764076102434749180,2025-11-25 18:38:22.432,-1.311000,1.755000,253.058000,-0.137100,0.284300,0.123600,0.295000,0.220000,-10.104000,0.001760,-0.003703,0.004779
1764076102461875791,2025-11-25 18:38:22.458,-1.309000,1.749000,253.065000,-0.135200,0.286300,0.144800,0.341000,0.210000,-10.172000,0.000954,-0.002844,0.005730
1764076102487449791,2025-11-25 18:38:22.484,-1.308000,1.746000,253.071000,-0.138800,0.285400,0.147800,0.278000,0.224000,-10.135000,-0.000044,-0.002045,0.004833
1764076102508694569,2025-11-25 18:38:22.505,-1.307000,1.741000,253.078000,-0.136200,0.283400,0.142700,0.318000,0.216000,-10.152000,-0.000621,-0.002763,0.006148
1764076102537530125,2025-11-25 18:38:22.535,-1.306000,1.738000,253.084000,-0.136000,0.290100,0.148900,0.270000,0.229000,-10.117000,-0.000072,-0.002415,0.005071
1764076102560147624,2025-11-25 18:38:22.557,-1.307000,1.735000,253.092000,-0.137100,0.286200,0.125700,0.321000,0.203000,-10.140000,-0.000464,-0.002199,0.004976
1764076102584956902,2025-11-25 18:38:22.581,-1.307000,1.733000,253.101000,-0.137100,0.287200,0.122600,0.295000,0.228000,-10.106000,-0.000487,-0.000782,0.005118
1764076102609328828,2025-11-25 18:38:22.606,-1.309000,1.732000,253.108000,-0.136300,0.281500,0.125800,0.309000,0.224000,-10.111000,-0.001371,-0.000865,0.003356
1764076102634969569,2025-11-25 18:38:22.632,-1.311000,1.730000,253.114000,-0.137100,0.286200,0.129900,0.304000,0.227000,-10.118000,-0.002106,-0.001082,0.005033
1764076102662866773,2025-11-25 18:38:22.659,-1.313000,1.730000,253.121000,-0.137200,0.280500,0.131000,0.319000,0.239000,-10.122000,-0.001981,0.000428,0.004249
1764076102684155921,2025-11-25 18:38:22.681,-1.316000,1.728000,253.129000,-0.136200,0.283400,0.125800,0.301000,0.247000,-10.090000,-0.001317,-0.000264,0.004162
1764076102708773550,2025-11-25 18:38:22.706,-1.318000,1.729000,253.134000,-0.135200,0.284400,0.149000,0.284000,0.190000,-10.117000,-0.002306,0.002301,0.004201
1764076102736985439,2025-11-25 18:38:22.734,-1.322000,1.730000,253.139000,-0.137000,0.286300,0.142600,0.315000,0.254000,-10.132000,-0.002817,0.001414,0.003568
1764076102761705032,2025-11-25 18:38:22.759,-1.324000,1.733000,253.145000,-0.136200,0.286200,0.125800,0.297000,0.222000,-10.147000,-0.002361,0.002090,0.004266
1764076102785260735,2025-11-25 18:38:22.782,-1.328000,1.736000,253.151000,-0.137100,0.285300,0.121500,0.308000,0.226000,-10.121000,-0.001697,0.002356,0.003416
1764076102808245235,2025-11-25 18:38:22.805,-1.332000,1.740000,253.156000,-0.137000,0.291000,0.125700,0.273000,0.278000,-10.125000,-0.001370,0.003615,0.003520
1764076102835924143,2025-11-25 18:38:22.833,-1.336000,1.744000,253.161000,-0.137000,0.291000,0.123600,0.297000,0.202000,-10.153000,-0.003140,0.002706,0.004522
1764076102862227384,2025-11-25 18:38:22.859,-1.338000,1.750000,253.166000,-0.133400,0.287200,0.142800,0.261000,0.223000,-10.123000,-0.001332,0.004021,0.004948
1764076102886147976,2025-11-25 18:38:22.883,-1.341000,1.755000,253.172000,-0.135300,0.286200,0.130000,0.347000,0.228000,-10.081000,-0.000856,0.003011,0.003670
1764076102911466217,2025-11-25 18:38:22.908,-1.343000,1.761000,253.177000,-0.134200,0.292000,0.146900,0.279000,0.240000,-10.139000,-0.001726,0.005425,0.004936
1764076102939219717,2025-11-25 18:38:22.935,-1.346000,1.767000,253.182000,-0.136100,0.286300,0.143700,0.352000,0.265000,-10.122000,-0.001916,0.003786,0.002801
1764076102959935661,2025-11-25 18:38:22.957,-1.349000,1.772000,253.189000,-0.137000,0.286300,0.140500,0.307000,0.256000,-10.139000,-0.001825,0.003209,0.003973
1764076102985604198,2025-11-25 18:38:22.982,-1.351000,1.778000,253.194000,-0.136200,0.284400,0.142700,0.339000,0.222000,-10.153000,-0.000726,0.003242,0.004286
1764076103010627198,2025-11-25 18:38:23.007,-1.351000,1.783000,253.198000,-0.137100,0.284400,0.140500,0.323000,0.262000,-10.111000,-0.000656,0.003676,0.003604
1764076103035289587,2025-11-25 18:38:23.032,-1.352000,1.787000,253.205000,-0.137000,0.285300,0.145800,0.319000,0.218000,-10.157000,-0.000327,0.001427,0.004309
1764076103101639328,2025-11-25 18:38:23.099,-1.351000,1.793000,253.215000,-0.135200,0.286300,0.144800,0.335000,0.241000,-10.134000,0.000510,0.001758,0.003539
1764076103110906198,2025-11-25 18:38:23.108,-1.351000,1.793000,253.222000,-0.136100,0.289100,0.124700,0.331000,0.207000,-10.106000,0.001086,-0.000355,0.004591
1764076103138141087,2025-11-25 18:38:23.134,-1.349000,1.794000,253.227000,-0.138000,0.287200,0.121400,0.323000,0.265000,-10.089000,0.001140,-0.000994,0.004243
1764076103160088272,2025-11-25 18:38:23.157,-1.347000,1.792000,253.232000,-0.135200,0.287200,0.144800,0.345000,0.240000,-10.115000,0.001466,-0.002292,0.005438
1764076103185077346,2025-11-25 18:38:23.182,-1.344000,1.790000,253.239000,-0.137000,0.287200,0.145700,0.297000,0.243000,-10.128000,0.001382,-0.001604,0.005636
1764076103208775735,2025-11-25 18:38:23.206,-1.341000,1.786000,253.244000,-0.136900,0.292900,0.139400,0.361000,0.242000,-10.117000,0.002804,-0.003084,0.003727
1764076103235901180,2025-11-25 18:38:23.232,-1.338000,1.783000,253.251000,-0.137900,0.288100,0.123500,0.284000,0.218000,-10.146000,0.002196,-0.004156,0.004586
1764076103262414661,2025-11-25 18:38:23.259,-1.334000,1.778000,253.257000,-0.137000,0.286300,0.145800,0.338000,0.256000,-10.128000,0.003218,-0.003101,0.003709
1764076103283819994,2025-11-25 18:38:23.280,-1.331000,1.774000,253.263000,-0.136100,0.287200,0.146800,0.293000,0.212000,-10.069000,0.002586,-0.002832,0.004729
1764076103308465828,2025-11-25 18:38:23.305,-1.327000,1.767000,253.270000,-0.134300,0.285300,0.148000,0.324000,0.206000,-10.111000,0.002417,-0.005386,0.004803
1764076103334337587,2025-11-25 18:38:23.331,-1.324000,1.761000,253.277000,-0.134400,0.282400,0.143800,0.291000,0.257000,-10.085000,0.002129,-0.004779,0.004982
1764076103363030606,2025-11-25 18:38:23.359,-1.321000,1.756000,253.284000,-0.135300,0.285200,0.123700,0.307000,0.213000,-10.131000,0.001353,-0.004740,0.003947
1764076103384459365,2025-11-25 18:38:23.381,-1.319000,1.751000,253.292000,-0.135300,0.284300,0.140600,0.306000,0.238000,-10.100000,0.001095,-0.003127,0.005900
1764076103408680346,2025-11-25 18:38:23.405,-1.316000,1.748000,253.297000,-0.135300,0.284300,0.124800,0.305000,0.242000,-10.098000,0.000557,-0.003500,0.003658
1764076103437259180,2025-11-25 18:38:23.433,-1.314000,1.743000,253.301000,-0.136100,0.288100,0.137300,0.298000,0.205000,-10.152000,0.001903,-0.002012,0.004113
1764076103462231105,2025-11-25 18:38:23.458,-1.313000,1.740000,253.306000,-0.136100,0.289100,0.141600,0.284000,0.235000,-10.101000,-0.000441,-0.002140,0.003987
1764076103483581402,2025-11-25 18:38:23.480,-1.314000,1.736000,253.312000,-0.138000,0.287200,0.123600,0.293000,0.249000,-10.139000,-0.001087,-0.001434,0.003730
1764076103508960939,2025-11-25 18:38:23.506,-1.314000,1.733000,253.315000,-0.136200,0.285200,0.123700,0.297000,0.215000,-10.141000,-0.001166,-0.001257,0.004683
1764076103537373235,2025-11-25 18:38:23.533,-1.317000,1.732000,253.320000,-0.135200,0.288200,0.145800,0.322000,0.228000,-10.121000,-0.000877,0.000651,0.002954
1764076103561376087,2025-11-25 18:38:23.558,-1.317000,1.732000,253.326000,-0.136200,0.283400,0.145800,0.283000,0.206000,-10.117000,-0.001373,-0.000722,0.002718
1764076103585415179,2025-11-25 18:38:23.582,-1.319000,1.732000,253.334000,-0.136000,0.290100,0.144700,0.312000,0.208000,-10.133000,-0.002712,0.001368,0.004987
1764076103608102235,2025-11-25 18:38:23.605,-1.321000,1.734000,253.339000,-0.135200,0.289100,0.144800,0.294000,0.284000,-10.129000,-0.002028,0.000630,0.001943
1764076103637253828,2025-11-25 18:38:23.633,-1.324000,1.736000,253.345000,-0.134400,0.284300,0.144800,0.351000,0.205000,-10.109000,-0.001541,0.001148,0.003908
1764076103660154346,2025-11-25 18:38:23.657,-1.327000,1.739000,253.349000,-0.134300,0.287100,0.129000,0.303000,0.232000,-10.125000,-0.003313,0.001635,0.003218
1764076103684959753,2025-11-25 18:38:23.682,-1.331000,1.742000,253.353000,-0.137000,0.288200,0.144700,0.335000,0.214000,-10.084000,-0.003132,0.001907,0.003626
1764076103709060735,2025-11-25 18:38:23.706,-1.334000,1.745000,253.359000,-0.135200,0.285300,0.144800,0.303000,0.235000,-10.132000,-0.001779,0.002495,0.004482
1764076103737872420,2025-11-25 18:38:23.734,-1.337000,1.749000,253.364000,-0.134300,0.284300,0.147000,0.310000,0.223000,-10.110000,-0.002316,0.003084,0.004350
1764076103760209568,2025-11-25 18:38:23.757,-1.340000,1.752000,253.371000,-0.135200,0.284400,0.152200,0.280000,0.248000,-10.119000,-0.001827,0.002849,0.005740
1764076103785056865,2025-11-25 18:38:23.782,-1.343000,1.757000,253.379000,-0.134300,0.285300,0.151200,0.302000,0.206000,-10.153000,-0.002355,0.003652,0.005287
1764076103808825309,2025-11-25 18:38:23.806,-1.346000,1.760000,253.385000,-0.137000,0.289100,0.127800,0.308000,0.255000,-10.124000,-0.002446,0.003344,0.003227
1764076103836483235,2025-11-25 18:38:23.833,-1.349000,1.764000,253.392000,-0.134400,0.282400,0.147000,0.314000,0.234000,-10.123000,-0.001947,0.002842,0.004387
1764076103861130087,2025-11-25 18:38:23.858,-1.351000,1.768000,253.399000,-0.135200,0.288200,0.144800,0.307000,0.261000,-10.117000,-0.000612,0.002837,0.005095
1764076103886140346,2025-11-25 18:38:23.882,-1.352000,1.773000,253.407000,-0.135300,0.284300,0.144800,0.311000,0.237000,-10.129000,-0.000801,0.003182,0.004522
1764076103911197013,2025-11-25 18:38:23.908,-1.353000,1.776000,253.412000,-0.134300,0.289000,0.123700,0.323000,0.248000,-10.136000,0.000388,0.002331,0.004665
1764076103935835587,2025-11-25 18:38:23.933,-1.353000,1.781000,253.419000,-0.136100,0.291000,0.126800,0.288000,0.271000,-10.119000,0.000448,0.002269,0.004816
1764076103960853161,2025-11-25 18:38:23.957,-1.352000,1.782000,253.425000,-0.135100,0.293900,0.142600,0.308000,0.234000,-10.107000,0.001120,0.001901,0.004028
1764076103987061124,2025-11-25 18:38:23.985,-1.351000,1.785000,253.430000,-0.135300,0.287100,0.124700,0.308000,0.260000,-10.126000,0.001791,0.001219,0.003762
1764076104009046346,2025-11-25 18:38:24.006,-1.350000,1.788000,253.436000,-0.135200,0.286300,0.144800,0.337000,0.242000,-10.135000,0.000410,0.000908,0.003168
1764076104034969513,2025-11-25 18:38:24.032,-1.347000,1.791000,253.442000,-0.136100,0.287200,0.144700,0.321000,0.227000,-10.116000,0.002672,0.001628,0.004327
1764076104102305827,2025-11-25 18:38:24.100,-1.341000,1.791000,253.452000,-0.136100,0.285300,0.150000,0.311000,0.227000,-10.116000,0.001266,-0.000109,0.002617
1764076104111379050,2025-11-25 18:38:24.109,-1.339000,1.793000,253.456000,-0.134300,0.290900,0.123700,0.330000,0.221000,-10.141000,0.001370,-0.000142,0.003903
1764076104139865975,2025-11-25 18:38:24.137,-1.336000,1.792000,253.463000,-0.134400,0.283400,0.142700,0.336000,0.277000,-10.132000,0.001872,-0.001166,0.002152
1764076104159274031,2025-11-25 18:38:24.156,-1.334000,1.792000,253.466000,-0.135200,0.289100,0.144800,0.350000,0.206000,-10.146000,0.000922,-0.001548,0.002713
1764076104183968012,2025-11-25 18:38:24.181,-1.333000,1.789000,253.472000,-0.134400,0.287100,0.125800,0.292000,0.234000,-10.120000,0.001025,-0.002497,0.003744
1764076104208281512,2025-11-25 18:38:24.206,-1.331000,1.786000,253.478000,-0.135100,0.291000,0.144700,0.310000,0.251000,-10.136000,0.000737,-0.004094,0.001466
1764076104236500105,2025-11-25 18:38:24.233,-1.332000,1.782000,253.485000,-0.134300,0.287200,0.140600,0.317000,0.224000,-10.150000,-0.000372,-0.003390,0.003215
1764076104261051105,2025-11-25 18:38:24.258,-1.331000,1.779000,253.490000,-0.137900,0.291900,0.122500,0.313000,0.217000,-10.101000,-0.000874,-0.003220,0.004384
1764076104283500568,2025-11-25 18:38:24.281,-1.332000,1.773000,253.494000,-0.133400,0.289000,0.122700,0.341000,0.222000,-10.133000,-0.002029,-0.003319,0.001954
1764076104308972438,2025-11-25 18:38:24.306,-1.333000,1.769000,253.500000,-0.132400,0.293700,0.120600,0.307000,0.234000,-10.142000,-0.001370,-0.003952,0.004330
1764076104338015883,2025-11-25 18:38:24.334,-1.335000,1.762000,253.504000,-0.136100,0.288200,0.141600,0.329000,0.229000,-10.134000,-0.001694,-0.004590,0.002644
1764076104362188012,2025-11-25 18:38:24.359,-1.336000,1.758000,253.510000,-0.135100,0.291000,0.144700,0.285000,0.217000,-10.114000,-0.002755,-0.003635,0.003228
1764076104384502735,2025-11-25 18:38:24.382,-1.339000,1.752000,253.517000,-0.134300,0.289100,0.144800,0.354000,0.222000,-10.103000,-0.001022,-0.003867,0.004735
1764076104409129660,2025-11-25 18:38:24.406,-1.341000,1.747000,253.522000,-0.135200,0.287200,0.151100,0.292000,0.244000,-10.100000,-0.003073,-0.003177,0.002868
1764076104437612142,2025-11-25 18:38:24.434,-1.344000,1.742000,253.527000,-0.135200,0.288200,0.146900,0.334000,0.217000,-10.115000,-0.001684,-0.002120,0.004326
1764076104460988864,2025-11-25 18:38:24.458,-1.346000,1.739000,253.535000,-0.134300,0.286200,0.146900,0.285000,0.252000,-10.096000,-0.000482,-0.002097,0.004353
1764076104484272105,2025-11-25 18:38:24.482,-1.348000,1.735000,253.544000,-0.136100,0.286300,0.146800,0.314000,0.214000,-10.084000,-0.002073,-0.002288,0.003388
1764076104508213864,2025-11-25 18:38:24.505,-1.350000,1.732000,253.549000,-0.135100,0.292000,0.143700,0.280000,0.223000,-10.120000,-0.000781,-0.001387,0.005246
1764076104537599512,2025-11-25 18:38:24.534,-1.351000,1.730000,253.554000,-0.135200,0.287200,0.144800,0.303000,0.259000,-10.104000,-0.000715,-0.001056,0.004098
1764076104559679790,2025-11-25 18:38:24.557,-1.352000,1.730000,253.560000,-0.135200,0.286200,0.140600,0.296000,0.210000,-10.083000,-0.000044,0.000247,0.004782
1764076104584309660,2025-11-25 18:38:24.581,-1.351000,1.730000,253.564000,-0.132400,0.290000,0.145900,0.295000,0.269000,-10.165000,0.001096,0.000144,0.004715
1764076104608867660,2025-11-25 18:38:24.606,-1.350000,1.731000,253.570000,-0.131500,0.290900,0.144900,0.289000,0.254000,-10.100000,0.000586,0.001214,0.003454
1764076104638940512,2025-11-25 18:38:24.635,-1.349000,1.734000,253.577000,-0.135200,0.290000,0.122600,0.257000,0.254000,-10.118000,0.000298,0.001731,0.004713
1764076104659276438,2025-11-25 18:38:24.656,-1.347000,1.736000,253.582000,-0.132500,0.289000,0.138600,0.306000,0.237000,-10.107000,0.001322,0.002664,0.003584
1764076104685347920,2025-11-25 18:38:24.682,-1.345000,1.741000,253.585000,-0.135200,0.291900,0.125800,0.275000,0.252000,-10.143000,0.001621,0.003191,0.003148
1764076104709043623,2025-11-25 18:38:24.706,-1.342000,1.745000,253.592000,-0.134400,0.286200,0.125800,0.321000,0.242000,-10.156000,0.001864,0.004535,0.004859
1764076104737360290,2025-11-25 18:38:24.734,-1.340000,1.751000,253.599000,-0.133500,0.287100,0.125900,0.283000,0.250000,-10.086000,0.001751,0.004965,0.003269
1764076104760014142,2025-11-25 18:38:24.757,-1.336000,1.757000,253.604000,-0.135200,0.289100,0.144800,0.305000,0.217000,-10.086000,0.001702,0.004270,0.002524
1764076104786995994,2025-11-25 18:38:24.784,-1.334000,1.763000,253.611000,-0.136100,0.291000,0.125700,0.300000,0.248000,-10.102000,0.001411,0.004930,0.004468
1764076104811226753,2025-11-25 18:38:24.808,-1.332000,1.771000,253.615000,-0.134200,0.290000,0.142700,0.329000,0.211000,-10.115000,0.001340,0.005054,0.003047
1764076104837848419,2025-11-25 18:38:24.834,-1.330000,1.778000,253.620000,-0.132400,0.291900,0.144900,0.307000,0.228000,-10.141000,0.001318,0.005864,0.004700
1764076104861338049,2025-11-25 18:38:24.858,-1.329000,1.786000,253.625000,-0.133400,0.287200,0.148000,0.344000,0.226000,-10.136000,-0.000155,0.005670,0.003397
1764076104885786956,2025-11-25 18:38:24.882,-1.329000,1.792000,253.630000,-0.134200,0.291900,0.142700,0.316000,0.240000,-10.112000,0.000130,0.005308,0.003132
1764076104910659345,2025-11-25 18:38:24.908,-1.331000,1.798000,253.636000,-0.133300,0.291000,0.147000,0.292000,0.220000,-10.138000,-0.000850,0.003105,0.004461
1764076104934818549,2025-11-25 18:38:24.932,-1.333000,1.802000,253.641000,-0.132500,0.288100,0.148100,0.322000,0.260000,-10.100000,-0.001857,0.002573,0.003835
1764076104962771197,2025-11-25 18:38:24.959,-1.334000,1.806000,253.649000,-0.134300,0.284300,0.148000,0.312000,0.206000,-10.148000,-0.002625,0.002497,0.003439
1764076104987242327,2025-11-25 18:38:24.984,-1.336000,1.808000,253.653000,-0.134400,0.281500,0.148000,0.323000,0.233000,-10.140000,-0.001396,0.002054,0.004189
1764076105010041049,2025-11-25 18:38:25.007,-1.339000,1.811000,253.658000,-0.133500,0.286200,0.123800,0.337000,0.246000,-10.105000,-0.002923,0.001615,0.003824
1764076105035511123,2025-11-25 18:38:25.032,-1.342000,1.810000,253.665000,-0.132500,0.287200,0.144900,0.359000,0.227000,-10.162000,-0.002267,-0.000642,0.005611
1764076105100903197,2025-11-25 18:38:25.098,-1.349000,1.807000,253.680000,-0.135100,0.289100,0.145800,0.358000,0.242000,-10.082000,-0.003453,-0.002346,0.002877
1764076105110148827,2025-11-25 18:38:25.108,-1.352000,1.804000,253.684000,-0.133300,0.295700,0.122700,0.307000,0.247000,-10.139000,-0.001706,-0.002818,0.004117
1764076105138053660,2025-11-25 18:38:25.134,-1.356000,1.800000,253.690000,-0.134300,0.290900,0.123700,0.339000,0.236000,-10.122000,-0.001442,-0.003339,0.003661
1764076105160867197,2025-11-25 18:38:25.157,-1.357000,1.794000,253.698000,-0.134400,0.285200,0.125900,0.290000,0.267000,-10.094000,-0.000245,-0.003970,0.002815
1764076105185593512,2025-11-25 18:38:25.183,-1.360000,1.787000,253.705000,-0.133300,0.290000,0.143800,0.325000,0.234000,-10.146000,-0.001202,-0.004724,0.005026
1764076105208333123,2025-11-25 18:38:25.205,-1.362000,1.779000,253.712000,-0.133300,0.291900,0.144800,0.311000,0.257000,-10.106000,-0.001447,-0.005681,0.004177
1764076105238961771,2025-11-25 18:38:25.236,-1.363000,1.773000,253.719000,-0.135300,0.283400,0.144800,0.330000,0.229000,-10.103000,-0.000542,-0.004873,0.005463
1764076105260621586,2025-11-25 18:38:25.257,-1.363000,1.765000,253.724000,-0.132500,0.286200,0.144900,0.306000,0.249000,-10.134000,0.000811,-0.004744,0.004511
1764076105285411253,2025-11-25 18:38:25.283,-1.361000,1.759000,253.731000,-0.133400,0.287200,0.145900,0.289000,0.234000,-10.097000,0.001013,-0.005208,0.003840
1764076105309129641,2025-11-25 18:38:25.306,-1.360000,1.749000,253.738000,-0.131600,0.287100,0.147100,0.321000,0.229000,-10.156000,0.001432,-0.004736,0.005368
1764076105338936993,2025-11-25 18:38:25.335,-1.357000,1.743000,253.744000,-0.131600,0.289000,0.127000,0.288000,0.270000,-10.104000,0.002692,-0.004969,0.005017
1764076105357522604,2025-11-25 18:38:25.355,-1.354000,1.736000,253.751000,-0.133500,0.285200,0.138600,0.324000,0.251000,-10.093000,0.002456,-0.003891,0.003454
1764076105386262864,2025-11-25 18:38:25.383,-1.352000,1.732000,253.757000,-0.133400,0.289100,0.141700,0.279000,0.244000,-10.135000,0.002816,-0.004049,0.004795
1764076105409990252,2025-11-25 18:38:25.407,-1.349000,1.725000,253.762000,-0.132500,0.289000,0.140700,0.302000,0.238000,-10.126000,0.002796,-0.003826,0.002742
1764076105438339178,2025-11-25 18:38:25.434,-1.345000,1.720000,253.765000,-0.134300,0.286200,0.140600,0.264000,0.258000,-10.151000,0.001685,-0.002542,0.003851
1764076105460586160,2025-11-25 18:38:25.457,-1.343000,1.716000,253.770000,-0.132400,0.291000,0.144900,0.326000,0.223000,-10.127000,0.002762,-0.001906,0.003479
1764076105486080252,2025-11-25 18:38:25.483,-1.339000,1.714000,253.774000,-0.133300,0.289100,0.144800,0.272000,0.244000,-10.107000,0.003007,-0.000303,0.001482
1764076105509515438,2025-11-25 18:38:25.507,-1.336000,1.713000,253.778000,-0.132500,0.290900,0.121700,0.335000,0.188000,-10.133000,0.002951,-0.000142,0.003198
1764076105537802771,2025-11-25 18:38:25.534,-1.333000,1.713000,253.782000,-0.131500,0.295600,0.124900,0.284000,0.244000,-10.116000,0.001010,0.000088,0.002091
1764076105561925938,2025-11-25 18:38:25.558,-1.331000,1.715000,253.787000,-0.133300,0.291000,0.148000,0.312000,0.225000,-10.099000,0.000849,0.001400,0.002808
1764076105586341975,2025-11-25 18:38:25.583,-1.329000,1.718000,253.792000,-0.133400,0.286200,0.148000,0.285000,0.225000,-10.128000,0.001556,0.003588,0.003209
1764076105609802271,2025-11-25 18:38:25.607,-1.328000,1.722000,253.797000,-0.134400,0.283300,0.129000,0.295000,0.226000,-10.117000,0.000857,0.002093,0.002481
1764076105636081586,2025-11-25 18:38:25.633,-1.327000,1.727000,253.801000,-0.133400,0.288100,0.124800,0.300000,0.228000,-10.111000,0.000321,0.004340,0.004117
1764076105663729586,2025-11-25 18:38:25.661,-1.326000,1.733000,253.806000,-0.134400,0.286200,0.122700,0.300000,0.219000,-10.132000,0.001311,0.004122,0.003744
1764076105684755104,2025-11-25 18:38:25.682,-1.325000,1.739000,253.811000,-0.132500,0.288000,0.124900,0.288000,0.235000,-10.133000,-0.000365,0.005577,0.003201
1764076105708452400,2025-11-25 18:38:25.705,-1.325000,1.747000,253.816000,-0.134300,0.286200,0.144800,0.296000,0.213000,-10.162000,0.000293,0.005139,0.003901
1764076105735590160,2025-11-25 18:38:25.732,-1.325000,1.754000,253.819000,-0.132500,0.287100,0.143900,0.301000,0.225000,-10.131000,-0.001297,0.005067,0.003164
1764076105761891863,2025-11-25 18:38:25.758,-1.326000,1.764000,253.825000,-0.132500,0.289900,0.117500,0.290000,0.229000,-10.114000,-0.000928,0.006677,0.004783
1764076105784597160,2025-11-25 18:38:25.782,-1.329000,1.772000,253.832000,-0.132600,0.287100,0.122800,0.331000,0.216000,-10.125000,-0.000323,0.006468,0.004644
1764076105808087974,2025-11-25 18:38:25.805,-1.331000,1.781000,253.837000,-0.134200,0.292900,0.143700,0.300000,0.245000,-10.107000,-0.001782,0.006952,0.003781
1764076105835528123,2025-11-25 18:38:25.832,-1.333000,1.791000,253.845000,-0.131600,0.287100,0.145000,0.327000,0.208000,-10.117000,-0.001141,0.006639,0.004987
1764076105863197456,2025-11-25 18:38:25.860,-1.334000,1.800000,253.852000,-0.134300,0.286200,0.143800,0.320000,0.254000,-10.115000,-0.001272,0.006012,0.005791
1764076105886777474,2025-11-25 18:38:25.884,-1.336000,1.807000,253.858000,-0.134400,0.286200,0.126900,0.343000,0.233000,-10.105000,-0.001463,0.004298,0.003587
1764076105911203530,2025-11-25 18:38:25.908,-1.337000,1.814000,253.863000,-0.133400,0.288100,0.143800,0.306000,0.225000,-10.184000,-0.001009,0.004159,0.005829
1764076105936322271,2025-11-25 18:38:25.933,-1.339000,1.820000,253.869000,-0.134300,0.287200,0.146900,0.330000,0.238000,-10.123000,-0.001565,0.002715,0.003636
1764076105964658845,2025-11-25 18:38:25.962,-1.340000,1.825000,253.876000,-0.134200,0.295700,0.124700,0.292000,0.227000,-10.141000,-0.001335,0.003065,0.002764
1764076105984189326,2025-11-25 18:38:25.981,-1.342000,1.829000,253.880000,-0.133500,0.285200,0.124900,0.325000,0.231000,-10.112000,-0.000549,0.001983,0.004613
1764076106009826326,2025-11-25 18:38:26.007,-1.343000,1.830000,253.887000,-0.132500,0.287200,0.149100,0.332000,0.247000,-10.108000,-0.001457,0.000845,0.003581
1764076106038288641,2025-11-25 18:38:26.034,-1.345000,1.832000,253.892000,-0.132400,0.289100,0.146000,0.334000,0.219000,-10.114000,-0.000801,-0.000100,0.003621
1764076106102194085,2025-11-25 18:38:26.100,-1.347000,1.829000,253.903000,-0.132500,0.288100,0.150200,0.330000,0.232000,-10.156000,-0.001751,-0.003575,0.001419
1764076106111502159,2025-11-25 18:38:26.109,-1.350000,1.824000,253.910000,-0.133500,0.284300,0.124900,0.342000,0.221000,-10.121000,-0.001675,-0.003949,0.003590
1764076106140804733,2025-11-25 18:38:26.137,-1.351000,1.819000,253.915000,-0.133500,0.286200,0.127000,0.310000,0.247000,-10.127000,-0.001280,-0.004685,0.003053
1764076106158872789,2025-11-25 18:38:26.156,-1.352000,1.813000,253.921000,-0.133400,0.284300,0.147000,0.308000,0.209000,-10.116000,-0.001263,-0.004405,0.002903
1764076106186186270,2025-11-25 18:38:26.183,-1.352000,1.807000,253.926000,-0.133400,0.288100,0.144900,0.309000,0.258000,-10.100000,0.000236,-0.005659,0.003536
1764076106209915270,2025-11-25 18:38:26.207,-1.353000,1.798000,253.931000,-0.132600,0.282400,0.148100,0.336000,0.248000,-10.110000,-0.001088,-0.005405,0.002141
1764076106237722048,2025-11-25 18:38:26.235,-1.353000,1.788000,253.935000,-0.133400,0.291900,0.124800,0.297000,0.213000,-10.130000,-0.001176,-0.006932,0.003833
1764076106260498567,2025-11-25 18:38:26.257,-1.353000,1.780000,253.940000,-0.131600,0.288100,0.133400,0.311000,0.228000,-10.130000,0.000384,-0.005213,0.003161
1764076106284845770,2025-11-25 18:38:26.281,-1.354000,1.770000,253.944000,-0.133300,0.291900,0.143800,0.288000,0.217000,-10.120000,-0.000592,-0.006838,0.002595
1764076106309869567,2025-11-25 18:38:26.306,-1.354000,1.762000,253.950000,-0.130700,0.286200,0.144000,0.320000,0.217000,-10.111000,-0.000527,-0.006361,0.003167
1764076106336285067,2025-11-25 18:38:26.333,-1.353000,1.752000,253.955000,-0.131600,0.287100,0.148100,0.286000,0.247000,-10.156000,-0.000375,-0.006051,0.003954
1764076106360950159,2025-11-25 18:38:26.358,-1.353000,1.744000,253.961000,-0.131500,0.290000,0.146000,0.311000,0.228000,-10.123000,0.000027,-0.005225,0.002775
1764076106386848270,2025-11-25 18:38:26.383,-1.352000,1.737000,253.966000,-0.132400,0.292900,0.148000,0.295000,0.236000,-10.116000,0.000336,-0.004583,0.003439
1764076106409862511,2025-11-25 18:38:26.407,-1.352000,1.731000,253.972000,-0.134400,0.287100,0.123700,0.278000,0.227000,-10.122000,0.000037,-0.004327,0.003433
1764076106437055141,2025-11-25 18:38:26.434,-1.350000,1.725000,253.979000,-0.134300,0.286200,0.143800,0.309000,0.226000,-10.145000,-0.000027,-0.003093,0.005153
1764076106462670196,2025-11-25 18:38:26.459,-1.349000,1.722000,253.983000,-0.130600,0.290900,0.147100,0.268000,0.226000,-10.127000,0.001078,-0.002682,0.004528
1764076106484944900,2025-11-25 18:38:26.482,-1.348000,1.717000,253.990000,-0.131600,0.287100,0.147100,0.324000,0.219000,-10.096000,0.000810,-0.001405,0.003468
1764076106508836474,2025-11-25 18:38:26.506,-1.346000,1.717000,253.996000,-0.135200,0.289100,0.144800,0.311000,0.239000,-10.097000,0.002368,-0.000284,0.005410
1764076106537561437,2025-11-25 18:38:26.534,-1.344000,1.716000,254.002000,-0.133400,0.289000,0.123800,0.316000,0.239000,-10.140000,0.000796,0.000402,0.003431
1764076106562101492,2025-11-25 18:38:26.558,-1.343000,1.718000,254.009000,-0.132500,0.288100,0.146000,0.256000,0.243000,-10.102000,0.000301,0.000737,0.005699
1764076106586070844,2025-11-25 18:38:26.583,-1.340000,1.720000,254.015000,-0.133400,0.287200,0.142800,0.312000,0.221000,-10.119000,0.002936,0.001810,0.003401
1764076106609828585,2025-11-25 18:38:26.607,-1.339000,1.722000,254.019000,-0.132600,0.287100,0.121700,0.301000,0.240000,-10.124000,0.001030,0.002226,0.003402
1764076106637614344,2025-11-25 18:38:26.634,-1.337000,1.726000,254.025000,-0.131500,0.289000,0.147000,0.325000,0.211000,-10.146000,0.001026,0.002377,0.004508
1764076106660979826,2025-11-25 18:38:26.657,-1.335000,1.730000,254.031000,-0.131500,0.290000,0.143900,0.301000,0.245000,-10.104000,0.000515,0.002633,0.004061
1764076106684886455,2025-11-25 18:38:26.682,-1.333000,1.735000,254.035000,-0.133300,0.293800,0.121600,0.332000,0.224000,-10.128000,0.000787,0.003452,0.002262
1764076106708943104,2025-11-25 18:38:26.706,-1.333000,1.740000,254.042000,-0.131500,0.290000,0.148100,0.298000,0.234000,-10.103000,-0.000274,0.003357,0.004558
1764076106737728807,2025-11-25 18:38:26.734,-1.332000,1.745000,254.048000,-0.133400,0.289100,0.143800,0.301000,0.257000,-10.119000,0.000158,0.002447,0.003568
1764076106760504381,2025-11-25 18:38:26.757,-1.331000,1.749000,254.051000,-0.131600,0.287100,0.148100,0.323000,0.254000,-10.119000,-0.000331,0.002838,0.003910
1764076106785629511,2025-11-25 18:38:26.783,-1.330000,1.753000,254.056000,-0.132600,0.286100,0.124900,0.295000,0.219000,-10.149000,0.001058,0.002468,0.003828
1764076106809482844,2025-11-25 18:38:26.806,-1.328000,1.757000,254.060000,-0.129000,0.286100,0.121900,0.319000,0.264000,-10.096000,0.000937,0.002586,0.001596
1764076106837533918,2025-11-25 18:38:26.834,-1.327000,1.761000,254.064000,-0.134400,0.286200,0.124800,0.321000,0.217000,-10.142000,-0.000071,0.002131,0.003419
1764076106861883289,2025-11-25 18:38:26.858,-1.327000,1.765000,254.066000,-0.132500,0.288100,0.146000,0.301000,0.240000,-10.122000,0.000793,0.004296,0.003399
1764076106886827455,2025-11-25 18:38:26.884,-1.326000,1.769000,254.069000,-0.131600,0.285200,0.142900,0.283000,0.236000,-10.107000,0.000081,0.002100,0.002470
1764076106910385881,2025-11-25 18:38:26.907,-1.325000,1.772000,254.074000,-0.131600,0.289000,0.123900,0.323000,0.226000,-10.129000,0.000984,0.002468,0.003400
1764076106937901789,2025-11-25 18:38:26.934,-1.324000,1.775000,254.079000,-0.131500,0.290900,0.142800,0.291000,0.262000,-10.107000,0.000118,0.002310,0.002479
1764076106961145196,2025-11-25 18:38:26.958,-1.324000,1.779000,254.084000,-0.132500,0.287200,0.144900,0.321000,0.207000,-10.142000,0.000399,0.002662,0.003206
1764076106986015307,2025-11-25 18:38:26.983,-1.322000,1.782000,254.088000,-0.132400,0.289100,0.148100,0.277000,0.240000,-10.131000,0.001629,0.002386,0.004169
1764076107009700585,2025-11-25 18:38:27.007,-1.322000,1.786000,254.094000,-0.135200,0.288100,0.125800,0.315000,0.219000,-10.088000,0.000160,0.002908,0.002153
1764076107037497529,2025-11-25 18:38:27.034,-1.322000,1.789000,254.100000,-0.134300,0.286200,0.144800,0.331000,0.215000,-10.117000,0.000338,0.002518,0.005268
1764076107103468122,2025-11-25 18:38:27.101,-1.324000,1.798000,254.110000,-0.132500,0.285200,0.143900,0.316000,0.215000,-10.117000,-0.001960,0.002799,0.004044
1764076107112742214,2025-11-25 18:38:27.110,-1.324000,1.803000,254.117000,-0.132500,0.286200,0.144900,0.314000,0.213000,-10.148000,-0.000769,0.002698,0.004475
1764076107138766585,2025-11-25 18:38:27.134,-1.326000,1.803000,254.123000,-0.131400,0.293800,0.144900,0.325000,0.255000,-10.116000,-0.001466,0.001788,0.003826
1764076107160511474,2025-11-25 18:38:27.157,-1.327000,1.806000,254.132000,-0.133300,0.294700,0.122700,0.323000,0.232000,-10.149000,-0.001660,0.001108,0.003770
1764076107185667011,2025-11-25 18:38:27.181,-1.330000,1.807000,254.139000,-0.130700,0.287100,0.127100,0.341000,0.230000,-10.124000,-0.000944,0.000350,0.006098
1764076107209300048,2025-11-25 18:38:27.206,-1.331000,1.810000,254.146000,-0.129800,0.289900,0.126100,0.307000,0.247000,-10.131000,-0.001969,0.001155,0.003887
1764076107236991529,2025-11-25 18:38:27.234,-1.335000,1.809000,254.153000,-0.130700,0.287100,0.127100,0.357000,0.215000,-10.148000,-0.002300,-0.000356,0.005648
1764076107263357177,2025-11-25 18:38:27.260,-1.337000,1.809000,254.160000,-0.132500,0.286200,0.146000,0.292000,0.248000,-10.120000,-0.001805,-0.001980,0.004855
1764076107285464307,2025-11-25 18:38:27.283,-1.341000,1.805000,254.167000,-0.133400,0.284300,0.145900,0.341000,0.209000,-10.131000,-0.003018,-0.002992,0.004564
1764076107309724381,2025-11-25 18:38:27.306,-1.343000,1.801000,254.171000,-0.131600,0.284300,0.145000,0.319000,0.232000,-10.131000,-0.001238,-0.004054,0.005513
1764076107338121714,2025-11-25 18:38:27.334,-1.345000,1.796000,254.179000,-0.132500,0.290900,0.124800,0.348000,0.246000,-10.119000,-0.002046,-0.004105,0.003714
1764076107360672973,2025-11-25 18:38:27.357,-1.347000,1.789000,254.183000,-0.129700,0.289900,0.139800,0.303000,0.227000,-10.136000,-0.000517,-0.005494,0.003797
1764076107384662733,2025-11-25 18:38:27.381,-1.349000,1.782000,254.186000,-0.127900,0.291800,0.143000,0.318000,0.217000,-10.131000,-0.000768,-0.006013,0.004984
1764076107408747177,2025-11-25 18:38:27.405,-1.349000,1.773000,254.192000,-0.133500,0.284300,0.144900,0.304000,0.240000,-10.130000,-0.001790,-0.006767,0.002942
1764076107437391862,2025-11-25 18:38:27.435,-1.350000,1.764000,254.196000,-0.131500,0.290000,0.142800,0.303000,0.241000,-10.082000,-0.000316,-0.005287,0.003353
1764076107459576233,2025-11-25 18:38:27.456,-1.352000,1.753000,254.200000,-0.129700,0.293700,0.122900,0.301000,0.256000,-10.132000,-0.000511,-0.006717,0.003116
1764076107484939714,2025-11-25 18:38:27.481,-1.352000,1.744000,254.205000,-0.131600,0.288000,0.124900,0.303000,0.240000,-10.132000,-0.000514,-0.007266,0.002025
1764076107508917177,2025-11-25 18:38:27.506,-1.351000,1.733000,254.208000,-0.130600,0.290900,0.149200,0.300000,0.232000,-10.108000,0.000795,-0.006716,0.003287
1764076107537276196,2025-11-25 18:38:27.533,-1.350000,1.726000,254.211000,-0.130700,0.288100,0.143900,0.304000,0.261000,-10.103000,0.000113,-0.004542,0.002051
1764076107561708159,2025-11-25 18:38:27.558,-1.350000,1.717000,254.214000,-0.130600,0.289000,0.149200,0.288000,0.226000,-10.137000,0.001016,-0.004082,0.002811
1764076107586611603,2025-11-25 18:38:27.583,-1.349000,1.711000,254.219000,-0.128800,0.292800,0.145000,0.281000,0.248000,-10.168000,0.001887,-0.003270,0.003392
1764076107610443010,2025-11-25 18:38:27.607,-1.346000,1.707000,254.225000,-0.130700,0.286200,0.146100,0.302000,0.259000,-10.104000,0.000802,-0.003077,0.003300
1764076107636963918,2025-11-25 18:38:27.633,-1.344000,1.704000,254.229000,-0.130800,0.284200,0.121800,0.279000,0.219000,-10.116000,0.002510,-0.000393,0.003110
1764076107663244529,2025-11-25 18:38:27.660,-1.341000,1.702000,254.233000,-0.128900,0.287100,0.145100,0.313000,0.257000,-10.138000,0.003153,-0.000672,0.002458
1764076107685572936,2025-11-25 18:38:27.682,-1.339000,1.704000,254.239000,-0.129800,0.286200,0.147200,0.292000,0.247000,-10.100000,0.001607,0.001816,0.002639
1764076107707822658,2025-11-25 18:38:27.704,-1.336000,1.708000,254.243000,-0.133300,0.291900,0.143800,0.293000,0.203000,-10.128000,0.001430,0.003216,0.004481
1764076107738163529,2025-11-25 18:38:27.735,-1.333000,1.711000,254.247000,-0.132500,0.288100,0.139600,0.272000,0.254000,-10.114000,0.001779,0.003113,0.002710
1764076107760544492,2025-11-25 18:38:27.757,-1.331000,1.718000,254.252000,-0.130700,0.288100,0.139700,0.357000,0.211000,-10.112000,0.000735,0.005145,0.003802
1764076107785585621,2025-11-25 18:38:27.783,-1.329000,1.726000,254.256000,-0.130600,0.292800,0.143900,0.253000,0.230000,-10.112000,0.000649,0.005648,0.004272
1764076107809059695,2025-11-25 18:38:27.805,-1.327000,1.735000,254.264000,-0.129800,0.288100,0.147100,0.300000,0.239000,-10.127000,0.000069,0.007891,0.003712
1764076107838016344,2025-11-25 18:38:27.835,-1.326000,1.745000,254.269000,-0.131400,0.293800,0.143900,0.307000,0.200000,-10.113000,0.001188,0.008126,0.004776
1764076107859319436,2025-11-25 18:38:27.856,-1.324000,1.754000,254.275000,-0.128800,0.291800,0.144000,0.318000,0.247000,-10.130000,0.000799,0.007282,0.004599
1764076107885653232,2025-11-25 18:38:27.883,-1.323000,1.764000,254.280000,-0.129800,0.288000,0.127100,0.340000,0.211000,-10.122000,-0.000088,0.006266,0.003341
1764076107909496381,2025-11-25 18:38:27.906,-1.324000,1.774000,254.286000,-0.129800,0.287100,0.149300,0.305000,0.213000,-10.132000,-0.000460,0.005575,0.004039
1764076107934997881,2025-11-25 18:38:27.932,-1.323000,1.781000,254.293000,-0.130700,0.289000,0.127100,0.333000,0.244000,-10.134000,-0.000436,0.004812,0.003612
1764076107960550677,2025-11-25 18:38:27.958,-1.324000,1.788000,254.302000,-0.129700,0.289000,0.145000,0.329000,0.231000,-10.099000,-0.001156,0.004188,0.005347
1764076107984840269,2025-11-25 18:38:27.982,-1.325000,1.794000,254.308000,-0.130700,0.287100,0.145000,0.342000,0.233000,-10.141000,-0.000684,0.003634,0.004103
1764076108008805288,2025-11-25 18:38:28.006,-1.326000,1.799000,254.316000,-0.129800,0.288900,0.126100,0.322000,0.234000,-10.121000,-0.000880,0.001769,0.004415
1764076108034214158,2025-11-25 18:38:28.031,-1.328000,1.803000,254.323000,-0.129600,0.296600,0.143900,0.338000,0.201000,-10.150000,-0.000048,0.001511,0.004511
1764076108105084103,2025-11-25 18:38:28.102,-1.331000,1.805000,254.338000,-0.132400,0.289100,0.144900,0.334000,0.225000,-10.114000,-0.001395,-0.001792,0.003778
1764076108114421177,2025-11-25 18:38:28.112,-1.332000,1.803000,254.343000,-0.131600,0.289000,0.123900,0.296000,0.236000,-10.131000,-0.001321,-0.001971,0.004263
1764076108132220455,2025-11-25 18:38:28.129,-1.333000,1.801000,254.352000,-0.129800,0.289900,0.121800,0.324000,0.248000,-10.121000,-0.001355,-0.000818,0.003135
1764076108161071603,2025-11-25 18:38:28.158,-1.336000,1.795000,254.357000,-0.131600,0.288100,0.144900,0.321000,0.232000,-10.117000,-0.001096,-0.002448,0.003370
1764076108184958806,2025-11-25 18:38:28.181,-1.338000,1.792000,254.361000,-0.130700,0.288100,0.147100,0.320000,0.247000,-10.152000,-0.000729,-0.003562,0.003409
1764076108208656140,2025-11-25 18:38:28.206,-1.340000,1.784000,254.366000,-0.129800,0.288100,0.146100,0.312000,0.254000,-10.100000,-0.001066,-0.004371,0.002843
1764076108238654158,2025-11-25 18:38:28.235,-1.342000,1.780000,254.368000,-0.129700,0.295600,0.123900,0.303000,0.232000,-10.126000,-0.001005,-0.003287,0.002473
1764076108260293899,2025-11-25 18:38:28.257,-1.344000,1.773000,254.372000,-0.131600,0.288000,0.121800,0.302000,0.246000,-10.123000,-0.001132,-0.004528,0.003150
1764076108285114936,2025-11-25 18:38:28.282,-1.344000,1.768000,254.376000,-0.131400,0.296600,0.138600,0.279000,0.256000,-10.141000,-0.000478,-0.003814,0.001444
1764076108309284306,2025-11-25 18:38:28.306,-1.345000,1.760000,254.381000,-0.128900,0.288000,0.146100,0.329000,0.237000,-10.157000,0.000816,-0.003855,0.004270
1764076108337541954,2025-11-25 18:38:28.334,-1.346000,1.755000,254.386000,-0.128100,0.287000,0.123000,0.280000,0.267000,-10.125000,-0.000016,-0.004074,0.003010
1764076108361653177,2025-11-25 18:38:28.358,-1.345000,1.749000,254.391000,-0.128900,0.286200,0.151400,0.311000,0.220000,-10.116000,0.001052,-0.002583,0.003734
1764076108386087658,2025-11-25 18:38:28.383,-1.344000,1.744000,254.395000,-0.129800,0.288100,0.145000,0.283000,0.249000,-10.099000,0.000084,-0.004198,0.002331
1764076108408696917,2025-11-25 18:38:28.405,-1.345000,1.740000,254.399000,-0.130600,0.292800,0.145000,0.327000,0.219000,-10.146000,0.000540,-0.002406,0.002942
1764076108437345751,2025-11-25 18:38:28.433,-1.344000,1.738000,254.405000,-0.129800,0.288000,0.126100,0.296000,0.245000,-10.141000,0.000530,-0.001314,0.004982
1764076108460609121,2025-11-25 18:38:28.457,-1.343000,1.738000,254.410000,-0.129700,0.292700,0.125000,0.321000,0.254000,-10.134000,0.000220,0.000020,0.003491
1764076108484325714,2025-11-25 18:38:28.481,-1.342000,1.737000,254.418000,-0.129800,0.290900,0.127100,0.270000,0.228000,-10.127000,0.000774,-0.000521,0.004959
1764076108509219491,2025-11-25 18:38:28.506,-1.342000,1.739000,254.425000,-0.132500,0.285200,0.146000,0.304000,0.231000,-10.120000,0.000275,0.000303,0.004581
1764076108536994362,2025-11-25 18:38:28.533,-1.341000,1.740000,254.431000,-0.128900,0.288000,0.126100,0.276000,0.238000,-10.092000,0.000694,0.001176,0.002358
1764076108561479658,2025-11-25 18:38:28.559,-1.338000,1.742000,254.440000,-0.128000,0.289900,0.124000,0.307000,0.221000,-10.135000,0.000920,0.001931,0.005363
1764076108585651621,2025-11-25 18:38:28.582,-1.337000,1.745000,254.445000,-0.128900,0.288900,0.128200,0.313000,0.239000,-10.155000,0.000688,0.002745,0.003642
1764076108608474491,2025-11-25 18:38:28.605,-1.336000,1.749000,254.451000,-0.128700,0.296600,0.142900,0.289000,0.254000,-10.117000,-0.000601,0.002019,0.004575
1764076108636841454,2025-11-25 18:38:28.633,-1.336000,1.752000,254.457000,-0.129800,0.288100,0.146100,0.300000,0.210000,-10.179000,0.000234,0.002745,0.003637
1764076108663001936,2025-11-25 18:38:28.660,-1.334000,1.758000,254.463000,-0.129700,0.290900,0.145000,0.296000,0.253000,-10.121000,0.000066,0.003168,0.004614
1764076108683639584,2025-11-25 18:38:28.681,-1.335000,1.762000,254.468000,-0.128900,0.285200,0.148300,0.327000,0.217000,-10.142000,0.000451,0.003248,0.002723
1764076108708638973,2025-11-25 18:38:28.706,-1.335000,1.767000,254.473000,-0.130600,0.290000,0.147100,0.284000,0.244000,-10.138000,0.000361,0.002991,0.004916
1764076108735925287,2025-11-25 18:38:28.732,-1.335000,1.770000,254.478000,-0.129800,0.288000,0.129200,0.331000,0.243000,-10.132000,0.000218,0.003024,0.003050
1764076108760220325,2025-11-25 18:38:28.757,-1.335000,1.775000,254.484000,-0.129900,0.285100,0.126100,0.275000,0.218000,-10.105000,-0.000896,0.002559,0.005152
1764076108784372269,2025-11-25 18:38:28.781,-1.335000,1.777000,254.488000,-0.129700,0.289000,0.142900,0.335000,0.226000,-10.169000,0.000742,0.002370,0.002930
1764076108809253880,2025-11-25 18:38:28.806,-1.334000,1.780000,254.492000,-0.129800,0.287000,0.127100,0.292000,0.251000,-10.123000,-0.000730,0.001433,0.003021
1764076108836618769,2025-11-25 18:38:28.833,-1.334000,1.781000,254.498000,-0.128000,0.288000,0.145100,0.337000,0.222000,-10.174000,0.000528,0.000403,0.003785
1764076108863190491,2025-11-25 18:38:28.860,-1.334000,1.781000,254.501000,-0.129700,0.290900,0.146100,0.302000,0.267000,-10.103000,-0.000904,0.000024,0.002551
1764076108886102824,2025-11-25 18:38:28.882,-1.334000,1.781000,254.504000,-0.130600,0.290000,0.140800,0.331000,0.214000,-10.122000,0.000267,-0.000094,0.004194
1764076108910597158,2025-11-25 18:38:28.908,-1.333000,1.779000,254.508000,-0.128800,0.292800,0.139800,0.304000,0.254000,-10.126000,0.000194,-0.001701,0.005227
1764076108935738843,2025-11-25 18:38:28.932,-1.333000,1.778000,254.514000,-0.127900,0.289900,0.145100,0.315000,0.243000,-10.117000,0.000121,-0.001433,0.002796
1764076108962911935,2025-11-25 18:38:28.960,-1.333000,1.774000,254.520000,-0.127900,0.289000,0.146200,0.308000,0.221000,-10.103000,0.001378,-0.003202,0.004867
1764076108985221639,2025-11-25 18:38:28.982,-1.333000,1.772000,254.525000,-0.128800,0.292700,0.122900,0.309000,0.254000,-10.112000,0.000855,-0.002306,0.003040
1764076109010221898,2025-11-25 18:38:29.007,-1.333000,1.767000,254.532000,-0.128900,0.290800,0.122900,0.334000,0.226000,-10.083000,-0.000848,-0.003238,0.004310
1764076109036423398,2025-11-25 18:38:29.032,-1.332000,1.765000,254.539000,-0.131600,0.290900,0.125900,0.309000,0.233000,-10.117000,-0.000726,-0.002986,0.004687
1764076109103341935,2025-11-25 18:38:29.101,-1.335000,1.756000,254.552000,-0.130600,0.289000,0.146000,0.297000,0.249000,-10.102000,-0.001662,-0.003270,0.005017
1764076109112646084,2025-11-25 18:38:29.110,-1.335000,1.751000,254.559000,-0.128100,0.286000,0.125100,0.334000,0.235000,-10.126000,-0.000239,-0.003267,0.004895
1764076109134430287,2025-11-25 18:38:29.131,-1.335000,1.747000,254.565000,-0.128800,0.289900,0.139800,0.286000,0.252000,-10.126000,-0.000935,-0.002589,0.004154
1764076109159555435,2025-11-25 18:38:29.156,-1.336000,1.743000,254.572000,-0.128900,0.287100,0.144000,0.316000,0.228000,-10.112000,-0.000644,-0.002572,0.004763
1764076109183623954,2025-11-25 18:38:29.181,-1.337000,1.741000,254.578000,-0.128800,0.289000,0.145100,0.263000,0.251000,-10.091000,-0.000792,-0.002772,0.004863
1764076109209383139,2025-11-25 18:38:29.206,-1.338000,1.737000,254.585000,-0.127900,0.290900,0.140900,0.323000,0.232000,-10.176000,-0.001376,-0.002367,0.004245
1764076109236654750,2025-11-25 18:38:29.233,-1.339000,1.735000,254.592000,-0.128800,0.291800,0.141900,0.278000,0.248000,-10.116000,-0.001622,-0.001993,0.005626
1764076109262982787,2025-11-25 18:38:29.260,-1.340000,1.734000,254.601000,-0.127900,0.289000,0.147200,0.293000,0.220000,-10.125000,-0.002434,-0.000422,0.003470
1764076109284442935,2025-11-25 18:38:29.281,-1.342000,1.732000,254.609000,-0.126900,0.293700,0.145100,0.289000,0.240000,-10.133000,-0.001429,-0.000806,0.004989
1764076109308851732,2025-11-25 18:38:29.305,-1.342000,1.733000,254.618000,-0.128000,0.289900,0.127200,0.281000,0.232000,-10.134000,-0.000996,0.001788,0.006001
1764076109336838380,2025-11-25 18:38:29.333,-1.343000,1.732000,254.623000,-0.128000,0.289800,0.123000,0.303000,0.272000,-10.119000,-0.000280,0.000700,0.003541
1764076109362355120,2025-11-25 18:38:29.359,-1.343000,1.735000,254.631000,-0.129700,0.290900,0.140800,0.308000,0.214000,-10.118000,-0.000164,0.002235,0.005993
1764076109384250232,2025-11-25 18:38:29.381,-1.345000,1.737000,254.635000,-0.128800,0.290900,0.147200,0.278000,0.237000,-10.115000,-0.000768,0.002132,0.004117
1764076109408902157,2025-11-25 18:38:29.406,-1.344000,1.741000,254.643000,-0.128700,0.296600,0.142900,0.276000,0.249000,-10.125000,-0.000566,0.003440,0.004318
1764076109437795250,2025-11-25 18:38:29.433,-1.345000,1.743000,254.647000,-0.128900,0.288900,0.126100,0.338000,0.213000,-10.142000,0.000839,0.003886,0.005553
1764076109462807602,2025-11-25 18:38:29.459,-1.345000,1.749000,254.652000,-0.129800,0.288100,0.147100,0.287000,0.261000,-10.129000,-0.000603,0.003532,0.002544
1764076109484538120,2025-11-25 18:38:29.481,-1.345000,1.753000,254.658000,-0.128800,0.291800,0.126100,0.336000,0.228000,-10.165000,0.000308,0.003446,0.002762
1764076109508776954,2025-11-25 18:38:29.506,-1.345000,1.759000,254.663000,-0.128000,0.290800,0.124000,0.295000,0.245000,-10.141000,0.001168,0.002935,0.005086
1764076109536022120,2025-11-25 18:38:29.532,-1.344000,1.764000,254.667000,-0.128900,0.290800,0.127100,0.326000,0.241000,-10.146000,-0.000153,0.003781,0.002768
1764076109561638417,2025-11-25 18:38:29.559,-1.343000,1.768000,254.673000,-0.128900,0.288000,0.148200,0.298000,0.233000,-10.108000,0.000648,0.003479,0.005691
1764076109585193380,2025-11-25 18:38:29.581,-1.342000,1.774000,254.678000,-0.128900,0.286100,0.146200,0.348000,0.225000,-10.110000,0.000570,0.003012,0.003790
1764076109608205046,2025-11-25 18:38:29.605,-1.341000,1.779000,254.681000,-0.128100,0.286000,0.123000,0.312000,0.214000,-10.109000,0.000559,0.003109,0.002327
1764076109637196843,2025-11-25 18:38:29.633,-1.340000,1.784000,254.688000,-0.129800,0.290800,0.126000,0.348000,0.229000,-10.130000,0.000276,0.003210,0.005070
1764076109661381157,2025-11-25 18:38:29.658,-1.340000,1.787000,254.692000,-0.128800,0.289900,0.144000,0.309000,0.250000,-10.089000,-0.000391,0.001656,0.002445
1764076109686470824,2025-11-25 18:38:29.683,-1.340000,1.790000,254.700000,-0.128900,0.286100,0.148300,0.319000,0.225000,-10.152000,0.000127,0.001304,0.004863
1764076109710541954,2025-11-25 18:38:29.707,-1.339000,1.791000,254.706000,-0.128000,0.286100,0.146200,0.347000,0.235000,-10.154000,0.000416,0.000999,0.004664
1764076109736887083,2025-11-25 18:38:29.733,-1.338000,1.795000,254.712000,-0.127900,0.290900,0.145100,0.345000,0.238000,-10.092000,-0.000028,0.001053,0.003004
1764076109761355565,2025-11-25 18:38:29.758,-1.338000,1.795000,254.718000,-0.126000,0.293700,0.144100,0.336000,0.225000,-10.120000,-0.000388,-0.000005,0.005157
1764076109786372250,2025-11-25 18:38:29.783,-1.337000,1.795000,254.725000,-0.128900,0.288000,0.145100,0.298000,0.228000,-10.115000,-0.000420,-0.000708,0.005101
1764076109810028972,2025-11-25 18:38:29.807,-1.336000,1.793000,254.732000,-0.128900,0.287100,0.144000,0.345000,0.230000,-10.147000,0.000321,-0.000940,0.003854
1764076109837105509,2025-11-25 18:38:29.834,-1.337000,1.791000,254.737000,-0.129700,0.290000,0.145000,0.312000,0.236000,-10.124000,0.000169,-0.001037,0.005277
1764076109859898305,2025-11-25 18:38:29.857,-1.336000,1.788000,254.744000,-0.128900,0.288900,0.128200,0.349000,0.245000,-10.136000,-0.001063,-0.001768,0.004965
1764076109884874676,2025-11-25 18:38:29.881,-1.336000,1.786000,254.752000,-0.128900,0.290800,0.126100,0.277000,0.226000,-10.136000,-0.000580,-0.003146,0.005355
1764076109909026620,2025-11-25 18:38:29.906,-1.335000,1.782000,254.758000,-0.128900,0.288000,0.127200,0.310000,0.244000,-10.113000,0.000248,-0.002871,0.005926
1764076109935631009,2025-11-25 18:38:29.933,-1.336000,1.777000,254.766000,-0.128800,0.289900,0.148200,0.279000,0.230000,-10.110000,0.000037,-0.003110,0.003850
1764076109960078768,2025-11-25 18:38:29.957,-1.337000,1.773000,254.772000,-0.128000,0.286100,0.144100,0.324000,0.207000,-10.128000,-0.000467,-0.002886,0.004609
1764076109985795750,2025-11-25 18:38:29.982,-1.337000,1.768000,254.780000,-0.127100,0.287000,0.145200,0.305000,0.250000,-10.128000,-0.000074,-0.002958,0.004927
1764076110009960990,2025-11-25 18:38:30.007,-1.337000,1.764000,254.786000,-0.128900,0.289900,0.121900,0.295000,0.234000,-10.153000,0.000165,-0.002376,0.003998
1764076110036380879,2025-11-25 18:38:30.034,-1.337000,1.758000,254.793000,-0.129800,0.287100,0.145000,0.292000,0.226000,-10.137000,0.000557,-0.003277,0.004860
1764076110103088435,2025-11-25 18:38:30.100,-1.339000,1.751000,254.807000,-0.126100,0.289900,0.145200,0.320000,0.228000,-10.171000,-0.000250,-0.002982,0.004134
1764076110112039453,2025-11-25 18:38:30.110,-1.340000,1.747000,254.815000,-0.127000,0.290900,0.145200,0.294000,0.227000,-10.160000,-0.000194,-0.004157,0.004850
1764076110139392194,2025-11-25 18:38:30.136,-1.340000,1.741000,254.823000,-0.128800,0.291800,0.145100,0.312000,0.249000,-10.144000,0.000250,-0.003150,0.003203
1764076110158815527,2025-11-25 18:38:30.156,-1.341000,1.738000,254.829000,-0.128800,0.291900,0.149300,0.291000,0.219000,-10.143000,-0.001089,-0.002611,0.003645
1764076110186570898,2025-11-25 18:38:30.183,-1.341000,1.734000,254.836000,-0.126900,0.296600,0.141900,0.323000,0.252000,-10.135000,-0.000417,-0.002908,0.004179
1764076110208042787,2025-11-25 18:38:30.205,-1.341000,1.732000,254.846000,-0.126100,0.288900,0.147300,0.278000,0.244000,-10.075000,-0.000485,-0.002320,0.003513
1764076110233281546,2025-11-25 18:38:30.231,-1.341000,1.728000,254.854000,-0.127900,0.289900,0.147200,0.318000,0.216000,-10.145000,-0.000675,-0.002624,0.003967
1764076110261512342,2025-11-25 18:38:30.259,-1.342000,1.724000,254.860000,-0.128000,0.288900,0.126100,0.273000,0.257000,-10.102000,-0.001094,-0.002125,0.003335
1764076110284636824,2025-11-25 18:38:30.281,-1.343000,1.722000,254.864000,-0.126000,0.292700,0.146200,0.338000,0.231000,-10.116000,-0.000765,0.000123,0.004752
1764076110309773120,2025-11-25 18:38:30.306,-1.343000,1.720000,254.872000,-0.127900,0.289900,0.147200,0.282000,0.235000,-10.150000,-0.001067,-0.000776,0.005531
1764076110338167490,2025-11-25 18:38:30.334,-1.342000,1.719000,254.880000,-0.126200,0.290800,0.123100,0.315000,0.219000,-10.135000,0.000341,-0.001105,0.004320
1764076110361231972,2025-11-25 18:38:30.358,-1.342000,1.719000,254.887000,-0.129700,0.290900,0.142900,0.280000,0.213000,-10.145000,-0.000717,0.000762,0.004811
1764076110385888509,2025-11-25 18:38:30.383,-1.341000,1.721000,254.897000,-0.128700,0.295600,0.145000,0.301000,0.257000,-10.098000,0.001160,0.001003,0.005820
1764076110408422453,2025-11-25 18:38:30.405,-1.341000,1.722000,254.905000,-0.128900,0.288000,0.140900,0.281000,0.238000,-10.162000,-0.001053,0.002076,0.004961
1764076110436796805,2025-11-25 18:38:30.433,-1.341000,1.725000,254.912000,-0.126000,0.293700,0.144100,0.279000,0.220000,-10.140000,0.000440,0.002519,0.007247
1764076110463218323,2025-11-25 18:38:30.460,-1.341000,1.728000,254.919000,-0.126100,0.288000,0.149400,0.291000,0.237000,-10.129000,0.000161,0.003354,0.003417
1764076110485126823,2025-11-25 18:38:30.482,-1.341000,1.734000,254.928000,-0.125100,0.294600,0.145200,0.273000,0.224000,-10.151000,-0.001410,0.004375,0.006162
1764076110508067953,2025-11-25 18:38:30.505,-1.341000,1.738000,254.937000,-0.127000,0.291800,0.146200,0.295000,0.235000,-10.139000,0.000269,0.003931,0.004911
1764076110535106120,2025-11-25 18:38:30.532,-1.339000,1.745000,254.942000,-0.126200,0.289800,0.129400,0.285000,0.245000,-10.150000,0.000918,0.005680,0.003575
1764076110561392472,2025-11-25 18:38:30.559,-1.340000,1.752000,254.949000,-0.127800,0.294700,0.149300,0.302000,0.219000,-10.131000,-0.000766,0.006508,0.003730
1764076110584757564,2025-11-25 18:38:30.581,-1.339000,1.760000,254.954000,-0.128900,0.290800,0.127100,0.302000,0.277000,-10.100000,-0.000273,0.006053,0.004502
1764076110609654490,2025-11-25 18:38:30.607,-1.341000,1.769000,254.960000,-0.127900,0.288000,0.149300,0.339000,0.226000,-10.122000,-0.000221,0.006061,0.003749
1764076110635225416,2025-11-25 18:38:30.632,-1.341000,1.777000,254.966000,-0.127100,0.286100,0.146200,0.299000,0.241000,-10.134000,-0.000122,0.005154,0.005986
1764076110663459675,2025-11-25 18:38:30.660,-1.342000,1.786000,254.974000,-0.127200,0.286000,0.124100,0.338000,0.258000,-10.156000,-0.000662,0.005376,0.003147
1764076110685885268,2025-11-25 18:38:30.683,-1.342000,1.793000,254.981000,-0.127700,0.298500,0.142900,0.295000,0.245000,-10.108000,-0.000025,0.005075,0.004323
1764076110709231305,2025-11-25 18:38:30.706,-1.344000,1.800000,254.987000,-0.127100,0.288000,0.145200,0.359000,0.226000,-10.102000,-0.001059,0.005513,0.003956
1764076110737720823,2025-11-25 18:38:30.734,-1.344000,1.806000,254.992000,-0.127900,0.292700,0.126100,0.322000,0.241000,-10.098000,-0.000166,0.002273,0.004032
1764076110763952268,2025-11-25 18:38:30.761,-1.343000,1.811000,255.001000,-0.127000,0.289900,0.149400,0.330000,0.203000,-10.155000,0.000029,0.001599,0.004603
1764076110785143879,2025-11-25 18:38:30.782,-1.344000,1.813000,255.006000,-0.125300,0.287900,0.133700,0.330000,0.259000,-10.113000,-0.000768,0.001485,0.004275
1764076110808918934,2025-11-25 18:38:30.806,-1.344000,1.816000,255.013000,-0.126200,0.288000,0.143100,0.344000,0.221000,-10.080000,0.000061,0.000274,0.003798
1764076110838257564,2025-11-25 18:38:30.834,-1.345000,1.815000,255.019000,-0.127000,0.291800,0.143000,0.332000,0.225000,-10.152000,0.000234,-0.001281,0.003963
1764076110860965083,2025-11-25 18:38:30.858,-1.345000,1.814000,255.025000,-0.127000,0.292700,0.124000,0.323000,0.244000,-10.111000,-0.000440,-0.003364,0.003911
1764076110887082175,2025-11-25 18:38:30.884,-1.347000,1.810000,255.030000,-0.127000,0.293600,0.125100,0.355000,0.219000,-10.126000,-0.001019,-0.002306,0.004395
1764076110911012175,2025-11-25 18:38:30.908,-1.345000,1.806000,255.037000,-0.126200,0.287000,0.146300,0.282000,0.256000,-10.120000,0.000316,-0.004704,0.004986
1764076110936104638,2025-11-25 18:38:30.932,-1.347000,1.797000,255.042000,-0.124400,0.289800,0.128400,0.364000,0.240000,-10.127000,-0.000389,-0.006009,0.004007
1764076110962705231,2025-11-25 18:38:30.960,-1.347000,1.790000,255.048000,-0.128800,0.293700,0.129200,0.321000,0.233000,-10.120000,-0.000179,-0.006671,0.003595
1764076110985685675,2025-11-25 18:38:30.983,-1.348000,1.781000,255.056000,-0.127000,0.289000,0.147300,0.321000,0.235000,-10.130000,-0.000311,-0.007872,0.003411
1764076111009517138,2025-11-25 18:38:31.007,-1.349000,1.771000,255.063000,-0.127000,0.291800,0.144100,0.311000,0.232000,-10.127000,-0.000259,-0.008126,0.004000
1764076111038047008,2025-11-25 18:38:31.034,-1.349000,1.761000,255.070000,-0.128000,0.287000,0.125100,0.336000,0.235000,-10.119000,-0.000201,-0.007222,0.004793
1764076111103160564,2025-11-25 18:38:31.100,-1.348000,1.740000,255.080000,-0.126200,0.288900,0.121000,0.317000,0.214000,-10.090000,0.001387,-0.006472,0.004659
1764076111112448342,2025-11-25 18:38:31.110,-1.346000,1.728000,255.087000,-0.127100,0.287000,0.142000,0.313000,0.235000,-10.122000,0.001560,-0.007761,0.004873
1764076111139458323,2025-11-25 18:38:31.136,-1.344000,1.719000,255.094000,-0.127100,0.287900,0.123000,0.314000,0.260000,-10.097000,0.001363,-0.007250,0.003402
1764076111159024453,2025-11-25 18:38:31.156,-1.343000,1.709000,255.101000,-0.126100,0.291800,0.145200,0.312000,0.205000,-10.144000,0.001101,-0.004485,0.005306
1764076111185641138,2025-11-25 18:38:31.183,-1.340000,1.704000,255.111000,-0.126100,0.288900,0.144200,0.267000,0.250000,-10.107000,0.001809,-0.002618,0.004909
1764076111209512286,2025-11-25 18:38:31.206,-1.336000,1.697000,255.119000,-0.127100,0.288900,0.140900,0.300000,0.238000,-10.123000,0.002357,-0.003030,0.004002
1764076111236906582,2025-11-25 18:38:31.234,-1.334000,1.696000,255.126000,-0.127000,0.289900,0.142000,0.282000,0.229000,-10.133000,0.002100,-0.001814,0.005608
1764076111262209379,2025-11-25 18:38:31.259,-1.331000,1.693000,255.132000,-0.126900,0.294700,0.144100,0.324000,0.241000,-10.132000,0.001247,-0.000544,0.004017
1764076111282518879,2025-11-25 18:38:31.280,-1.329000,1.694000,255.139000,-0.128000,0.288900,0.127200,0.267000,0.224000,-10.140000,0.001961,0.001149,0.004653
1764076111309376138,2025-11-25 18:38:31.306,-1.326000,1.696000,255.144000,-0.128000,0.288000,0.146200,0.313000,0.213000,-10.104000,0.001834,0.003997,0.006377
1764076111337114230,2025-11-25 18:38:31.334,-1.322000,1.701000,255.151000,-0.127000,0.290900,0.146200,0.265000,0.263000,-10.108000,0.001585,0.005686,0.004020
1764076111362053249,2025-11-25 18:38:31.359,-1.319000,1.706000,255.157000,-0.127000,0.289900,0.143100,0.324000,0.202000,-10.178000,0.001224,0.005316,0.004506
1764076111386062212,2025-11-25 18:38:31.383,-1.318000,1.714000,255.162000,-0.126900,0.294700,0.144100,0.266000,0.247000,-10.117000,0.001216,0.006095,0.004332
1764076111409808304,2025-11-25 18:38:31.406,-1.318000,1.723000,255.169000,-0.126200,0.290800,0.125200,0.309000,0.229000,-10.124000,-0.000152,0.007559,0.004037
1764076111437573897,2025-11-25 18:38:31.434,-1.318000,1.733000,255.174000,-0.125200,0.292700,0.125200,0.270000,0.230000,-10.179000,-0.000344,0.007660,0.004112
1764076111463052823,2025-11-25 18:38:31.460,-1.318000,1.744000,255.179000,-0.126100,0.291700,0.124100,0.334000,0.251000,-10.117000,-0.001490,0.009805,0.002880
1764076111483849971,2025-11-25 18:38:31.481,-1.321000,1.756000,255.186000,-0.126000,0.296500,0.123000,0.313000,0.238000,-10.102000,-0.001923,0.008344,0.004097
1764076111509023952,2025-11-25 18:38:31.506,-1.323000,1.769000,255.191000,-0.127000,0.292700,0.125100,0.306000,0.217000,-10.166000,-0.002484,0.007684,0.003572
1764076111538079415,2025-11-25 18:38:31.534,-1.326000,1.779000,255.197000,-0.126200,0.288000,0.143100,0.320000,0.219000,-10.091000,-0.002481,0.008227,0.003552
1764076111560692749,2025-11-25 18:38:31.558,-1.329000,1.791000,255.200000,-0.126000,0.294600,0.145200,0.320000,0.226000,-10.108000,-0.002612,0.006934,0.003732
1764076111584925304,2025-11-25 18:38:31.582,-1.333000,1.802000,255.204000,-0.126900,0.296600,0.146200,0.351000,0.249000,-10.118000,-0.002360,0.006516,0.003188
1764076111608997360,2025-11-25 18:38:31.605,-1.337000,1.812000,255.208000,-0.126100,0.290800,0.147300,0.312000,0.217000,-10.140000,-0.002733,0.004042,0.003160
1764076111636460397,2025-11-25 18:38:31.633,-1.342000,1.818000,255.213000,-0.126900,0.294700,0.146200,0.344000,0.223000,-10.154000,-0.002551,0.003698,0.003852
1764076111662849119,2025-11-25 18:38:31.659,-1.346000,1.825000,255.218000,-0.127800,0.293700,0.147200,0.332000,0.249000,-10.134000,-0.002821,0.001783,0.002048
1764076111685692897,2025-11-25 18:38:31.683,-1.351000,1.828000,255.226000,-0.127900,0.289000,0.146200,0.371000,0.221000,-10.145000,-0.002653,0.002325,0.004898
1764076111709074563,2025-11-25 18:38:31.705,-1.355000,1.831000,255.230000,-0.127100,0.289800,0.128300,0.306000,0.249000,-10.143000,-0.002868,0.000291,0.005411
1764076111737552508,2025-11-25 18:38:31.734,-1.359000,1.831000,255.235000,-0.125300,0.287900,0.127300,0.369000,0.250000,-10.157000,-0.002312,-0.001831,0.003046
1764076111762768915,2025-11-25 18:38:31.759,-1.362000,1.828000,255.240000,-0.124200,0.295600,0.149500,0.311000,0.247000,-10.113000,-0.001925,-0.003600,0.004533
1764076111784294063,2025-11-25 18:38:31.781,-1.364000,1.823000,255.246000,-0.126100,0.291800,0.141000,0.344000,0.277000,-10.121000,-0.001696,-0.005327,0.003981
1764076111809623008,2025-11-25 18:38:31.806,-1.366000,1.815000,255.254000,-0.127000,0.291800,0.151500,0.317000,0.262000,-10.113000,0.000059,-0.006489,0.004666
1764076111838065823,2025-11-25 18:38:31.834,-1.367000,1.807000,255.262000,-0.125200,0.290800,0.149500,0.316000,0.259000,-10.155000,0.000093,-0.006737,0.005337
1764076111861267397,2025-11-25 18:38:31.858,-1.366000,1.797000,255.269000,-0.126300,0.285100,0.126300,0.315000,0.244000,-10.118000,0.000252,-0.007082,0.005615
1764076111887086934,2025-11-25 18:38:31.884,-1.363000,1.787000,255.277000,-0.125300,0.287000,0.147400,0.334000,0.242000,-10.120000,0.001771,-0.007804,0.004322
1764076111911513637,2025-11-25 18:38:31.908,-1.361000,1.774000,255.284000,-0.125300,0.286100,0.143200,0.320000,0.231000,-10.100000,0.002081,-0.008086,0.005289
1764076111936429767,2025-11-25 18:38:31.933,-1.358000,1.764000,255.292000,-0.126100,0.291800,0.149400,0.305000,0.261000,-10.125000,0.001770,-0.009565,0.003858
1764076111966631045,2025-11-25 18:38:31.963,-1.354000,1.750000,255.298000,-0.125100,0.295500,0.130500,0.320000,0.209000,-10.122000,0.003742,-0.008968,0.004131
1764076111984305637,2025-11-25 18:38:31.981,-1.350000,1.740000,255.306000,-0.127900,0.292700,0.125100,0.278000,0.238000,-10.099000,0.003001,-0.008481,0.003529
1764076112009507323,2025-11-25 18:38:32.007,-1.345000,1.729000,255.310000,-0.125200,0.291800,0.146300,0.320000,0.255000,-10.122000,0.003650,-0.005860,0.002949
1764076112037808786,2025-11-25 18:38:32.034,-1.340000,1.719000,255.316000,-0.123400,0.289800,0.146400,0.282000,0.228000,-10.089000,0.003095,-0.006166,0.004989
1764076112102042323,2025-11-25 18:38:32.099,-1.332000,1.704000,255.325000,-0.124300,0.291700,0.124200,0.256000,0.222000,-10.111000,0.001520,-0.003851,0.003368
1764076112111248897,2025-11-25 18:38:32.109,-1.329000,1.700000,255.331000,-0.122600,0.289800,0.126400,0.294000,0.237000,-10.102000,0.001260,-0.001221,0.004265
1764076112139552526,2025-11-25 18:38:32.136,-1.326000,1.698000,255.337000,-0.125200,0.289900,0.141000,0.257000,0.240000,-10.114000,0.001902,-0.000765,0.002749
1764076112159641397,2025-11-25 18:38:32.157,-1.324000,1.697000,255.344000,-0.125100,0.296500,0.145200,0.298000,0.193000,-10.134000,0.000701,0.000517,0.004691
1764076112185656656,2025-11-25 18:38:32.182,-1.322000,1.698000,255.348000,-0.123400,0.291700,0.145300,0.277000,0.231000,-10.124000,0.000772,0.003006,0.003142
1764076112207932082,2025-11-25 18:38:32.205,-1.321000,1.702000,255.355000,-0.123500,0.287900,0.139000,0.313000,0.198000,-10.122000,-0.000582,0.004358,0.004781
1764076112238520674,2025-11-25 18:38:32.235,-1.321000,1.707000,255.362000,-0.126200,0.287000,0.147300,0.289000,0.209000,-10.118000,-0.000016,0.004357,0.004252
1764076112260739156,2025-11-25 18:38:32.257,-1.321000,1.715000,255.367000,-0.124300,0.290800,0.145300,0.304000,0.222000,-10.145000,-0.001919,0.004933,0.002462
1764076112284739285,2025-11-25 18:38:32.282,-1.322000,1.723000,255.374000,-0.125200,0.290800,0.143100,0.298000,0.232000,-10.144000,-0.001324,0.006969,0.004914
1764076112308707545,2025-11-25 18:38:32.305,-1.324000,1.733000,255.378000,-0.124300,0.290800,0.143200,0.297000,0.236000,-10.153000,-0.000735,0.007902,0.004512
1764076112335676841,2025-11-25 18:38:32.332,-1.326000,1.743000,255.385000,-0.123400,0.292700,0.142200,0.334000,0.232000,-10.097000,-0.002109,0.006512,0.002732
1764076112360641230,2025-11-25 18:38:32.358,-1.327000,1.754000,255.390000,-0.126100,0.292700,0.143100,0.296000,0.217000,-10.107000,-0.001955,0.007539,0.003946
1764076112384519859,2025-11-25 18:38:32.381,-1.330000,1.765000,255.397000,-0.128000,0.288900,0.126100,0.319000,0.250000,-10.099000,-0.001612,0.007448,0.004950
1764076112408824933,2025-11-25 18:38:32.406,-1.333000,1.776000,255.403000,-0.127000,0.289000,0.146200,0.311000,0.228000,-10.117000,-0.003031,0.007044,0.003952
1764076112435075322,2025-11-25 18:38:32.432,-1.335000,1.785000,255.409000,-0.126900,0.292800,0.147300,0.318000,0.213000,-10.154000,-0.001398,0.006848,0.004312
1764076112462297267,2025-11-25 18:38:32.458,-1.336000,1.795000,255.414000,-0.124200,0.293700,0.145300,0.306000,0.257000,-10.121000,-0.001199,0.006470,0.004504
1764076112485088026,2025-11-25 18:38:32.482,-1.339000,1.805000,255.420000,-0.125300,0.290800,0.126300,0.361000,0.223000,-10.144000,-0.001675,0.006296,0.005061
1764076112508640007,2025-11-25 18:38:32.506,-1.340000,1.812000,255.426000,-0.126000,0.292800,0.147300,0.295000,0.241000,-10.106000,-0.000955,0.004880,0.003930
1764076112537308285,2025-11-25 18:38:32.534,-1.342000,1.821000,255.431000,-0.126200,0.290800,0.121000,0.330000,0.249000,-10.086000,-0.001183,0.004056,0.003176
1764076112563372489,2025-11-25 18:38:32.560,-1.344000,1.825000,255.436000,-0.123400,0.291700,0.143200,0.324000,0.214000,-10.118000,-0.000755,0.001530,0.004697
1764076112585579619,2025-11-25 18:38:32.582,-1.344000,1.829000,255.440000,-0.124300,0.289800,0.142100,0.345000,0.255000,-10.142000,-0.000409,0.001273,0.003911
1764076112608075730,2025-11-25 18:38:32.605,-1.344000,1.832000,255.447000,-0.124300,0.289900,0.145300,0.333000,0.251000,-10.105000,0.001211,0.001656,0.003685
1764076112636946933,2025-11-25 18:38:32.634,-1.344000,1.835000,255.453000,-0.125100,0.300300,0.125100,0.302000,0.253000,-10.140000,-0.000185,0.000781,0.004028
1764076112662794693,2025-11-25 18:38:32.660,-1.344000,1.833000,255.459000,-0.126200,0.289800,0.126200,0.345000,0.248000,-10.132000,0.000537,-0.001078,0.003187
1764076112681794581,2025-11-25 18:38:32.679,-1.342000,1.833000,255.466000,-0.126100,0.292700,0.144100,0.315000,0.203000,-10.163000,0.000506,-0.002797,0.003208
1764076112708861804,2025-11-25 18:38:32.706,-1.340000,1.829000,255.471000,-0.125200,0.291800,0.144200,0.339000,0.242000,-10.119000,0.000946,-0.002337,0.004775
1764076112736886989,2025-11-25 18:38:32.734,-1.339000,1.826000,255.476000,-0.124300,0.288900,0.145300,0.308000,0.232000,-10.132000,-0.000225,-0.003284,0.004200
1764076112761914137,2025-11-25 18:38:32.759,-1.338000,1.820000,255.480000,-0.122500,0.293600,0.126400,0.346000,0.211000,-10.127000,0.000177,-0.004387,0.004283
1764076112785765822,2025-11-25 18:38:32.783,-1.336000,1.814000,255.485000,-0.125200,0.291800,0.144200,0.292000,0.236000,-10.116000,0.000573,-0.005083,0.003496
1764076112808812267,2025-11-25 18:38:32.806,-1.335000,1.805000,255.491000,-0.124300,0.291800,0.146300,0.340000,0.228000,-10.090000,0.000303,-0.005755,0.003896
1764076112836690952,2025-11-25 18:38:32.833,-1.335000,1.799000,255.497000,-0.125200,0.292700,0.144200,0.290000,0.246000,-10.142000,0.000384,-0.005700,0.004352
1764076112863274415,2025-11-25 18:38:32.860,-1.336000,1.790000,255.503000,-0.124200,0.292700,0.148400,0.316000,0.257000,-10.132000,-0.000513,-0.006926,0.003990
1764076112885789248,2025-11-25 18:38:32.882,-1.337000,1.781000,255.511000,-0.123400,0.289800,0.145300,0.311000,0.227000,-10.101000,-0.000668,-0.006137,0.005085
1764076112910777378,2025-11-25 18:38:32.908,-1.336000,1.773000,255.516000,-0.124400,0.288000,0.146400,0.314000,0.224000,-10.120000,-0.000161,-0.006675,0.002986
1764076112935667544,2025-11-25 18:38:32.932,-1.337000,1.764000,255.523000,-0.121500,0.292700,0.148600,0.303000,0.272000,-10.113000,-0.000853,-0.006176,0.002977
1764076112961457026,2025-11-25 18:38:32.959,-1.339000,1.756000,255.530000,-0.124300,0.291800,0.149500,0.333000,0.216000,-10.135000,-0.000633,-0.005332,0.004595
1764076112986469359,2025-11-25 18:38:32.983,-1.339000,1.748000,255.537000,-0.124400,0.286100,0.148500,0.298000,0.256000,-10.102000,-0.001077,-0.004029,0.004688
1764076113011545878,2025-11-25 18:38:33.009,-1.338000,1.742000,255.544000,-0.122500,0.288900,0.141200,0.294000,0.233000,-10.086000,-0.001232,-0.005530,0.003835
1764076113034348840,2025-11-25 18:38:33.031,-1.339000,1.732000,255.551000,-0.125200,0.291800,0.146300,0.293000,0.205000,-10.134000,0.000173,-0.005349,0.005393
1764076113102038785,2025-11-25 18:38:33.100,-1.338000,1.721000,255.564000,-0.123300,0.296500,0.147400,0.293000,0.222000,-10.107000,-0.000253,-0.003300,0.003909
1764076113111252377,2025-11-25 18:38:33.109,-1.337000,1.718000,255.572000,-0.125100,0.293700,0.147300,0.294000,0.252000,-10.107000,0.001418,-0.002027,0.005342
1764076113138633359,2025-11-25 18:38:33.135,-1.337000,1.713000,255.579000,-0.125200,0.288900,0.146300,0.328000,0.238000,-10.120000,0.000143,-0.001891,0.003225
1764076113159281266,2025-11-25 18:38:33.156,-1.335000,1.712000,255.586000,-0.124200,0.293700,0.146300,0.282000,0.250000,-10.155000,0.001175,-0.001256,0.005135
1764076113185907118,2025-11-25 18:38:33.183,-1.334000,1.711000,255.593000,-0.123200,0.298400,0.145300,0.310000,0.249000,-10.095000,0.000162,0.000329,0.004019
1764076113209631100,2025-11-25 18:38:33.207,-1.332000,1.712000,255.600000,-0.124200,0.292700,0.147400,0.293000,0.272000,-10.100000,0.001059,0.000449,0.003068
1764076113236959359,2025-11-25 18:38:33.234,-1.331000,1.714000,255.604000,-0.125200,0.290800,0.147400,0.306000,0.252000,-10.090000,0.000884,0.001621,0.004730
1764076113263251618,2025-11-25 18:38:33.260,-1.330000,1.718000,255.609000,-0.121600,0.290800,0.149600,0.283000,0.254000,-10.103000,0.000863,0.004351,0.002336
1764076113285648785,2025-11-25 18:38:33.283,-1.328000,1.722000,255.613000,-0.124300,0.290800,0.143200,0.322000,0.220000,-10.104000,0.000841,0.004297,0.004317
1764076113309191192,2025-11-25 18:38:33.306,-1.327000,1.729000,255.619000,-0.123400,0.293600,0.127400,0.267000,0.244000,-10.122000,0.001005,0.004386,0.004022
1764076113337712544,2025-11-25 18:38:33.334,-1.325000,1.736000,255.623000,-0.123400,0.290800,0.144300,0.294000,0.250000,-10.092000,0.001487,0.004924,0.001324
1764076113360382359,2025-11-25 18:38:33.357,-1.325000,1.742000,255.630000,-0.123300,0.295600,0.147400,0.307000,0.224000,-10.113000,0.000474,0.005632,0.004522
1764076113382619359,2025-11-25 18:38:33.380,-1.323000,1.750000,255.635000,-0.124400,0.287900,0.120000,0.291000,0.266000,-10.129000,0.000650,0.004737,0.002109
1764076113409164377,2025-11-25 18:38:33.406,-1.323000,1.757000,255.637000,-0.125100,0.296500,0.145200,0.312000,0.243000,-10.129000,0.000180,0.005788,0.002093
1764076113437296359,2025-11-25 18:38:33.434,-1.323000,1.767000,255.641000,-0.124300,0.288900,0.142100,0.294000,0.208000,-10.122000,-0.000019,0.006010,0.004677
1764076113460405877,2025-11-25 18:38:33.457,-1.323000,1.774000,255.644000,-0.123300,0.297400,0.118900,0.328000,0.237000,-10.075000,-0.000287,0.005668,0.001494
1764076113483681729,2025-11-25 18:38:33.481,-1.324000,1.783000,255.653000,-0.122500,0.292700,0.141200,0.300000,0.225000,-10.107000,-0.000925,0.005411,0.004367
1764076113508675266,2025-11-25 18:38:33.506,-1.326000,1.790000,255.660000,-0.124200,0.295600,0.146300,0.353000,0.246000,-10.127000,-0.001675,0.004498,0.003512
1764076113535779007,2025-11-25 18:38:33.532,-1.327000,1.797000,255.666000,-0.126100,0.292700,0.145200,0.301000,0.254000,-10.092000,-0.001190,0.005407,0.003057
1764076113562399025,2025-11-25 18:38:33.559,-1.329000,1.804000,255.670000,-0.127900,0.291800,0.128200,0.339000,0.235000,-10.176000,-0.001083,0.004054,0.005515
1764076113583760599,2025-11-25 18:38:33.581,-1.331000,1.809000,255.675000,-0.125200,0.289900,0.146300,0.309000,0.247000,-10.125000,-0.001091,0.003230,0.003492
1764076113607559081,2025-11-25 18:38:33.605,-1.334000,1.814000,255.680000,-0.122400,0.294600,0.147500,0.328000,0.199000,-10.115000,-0.002116,0.003209,0.003280
1764076113635692840,2025-11-25 18:38:33.632,-1.336000,1.817000,255.683000,-0.124300,0.288900,0.150600,0.317000,0.223000,-10.135000,-0.002033,0.001848,0.004851
1764076113662616044,2025-11-25 18:38:33.659,-1.339000,1.821000,255.688000,-0.123400,0.291700,0.143200,0.335000,0.237000,-10.136000,-0.002975,0.001402,0.004102
1764076113684792210,2025-11-25 18:38:33.681,-1.342000,1.821000,255.693000,-0.125100,0.293700,0.146300,0.306000,0.231000,-10.137000,-0.002506,-0.000985,0.004989
1764076113709285210,2025-11-25 18:38:33.706,-1.345000,1.821000,255.697000,-0.126100,0.291700,0.127300,0.308000,0.236000,-10.166000,-0.001741,-0.000742,0.004060
1764076113732668599,2025-11-25 18:38:33.730,-1.347000,1.818000,255.703000,-0.122600,0.290700,0.125300,0.337000,0.240000,-10.101000,-0.001042,-0.002086,0.004595
1764076113761288359,2025-11-25 18:38:33.758,-1.349000,1.817000,255.709000,-0.124200,0.294600,0.144200,0.329000,0.230000,-10.153000,-0.000788,-0.001636,0.004487
1764076113784872062,2025-11-25 18:38:33.781,-1.350000,1.812000,255.716000,-0.123400,0.292600,0.119000,0.324000,0.280000,-10.120000,-0.001107,-0.002011,0.003214
1764076113809450840,2025-11-25 18:38:33.806,-1.352000,1.808000,255.719000,-0.122500,0.295500,0.123200,0.313000,0.239000,-10.152000,-0.001212,-0.003914,0.004075
1764076113834825229,2025-11-25 18:38:33.832,-1.353000,1.802000,255.725000,-0.123300,0.295600,0.146400,0.312000,0.231000,-10.102000,-0.000406,-0.004304,0.004119
1764076113861563155,2025-11-25 18:38:33.859,-1.352000,1.797000,255.730000,-0.124300,0.289800,0.144200,0.290000,0.262000,-10.119000,0.000047,-0.004072,0.003724
1764076113886706229,2025-11-25 18:38:33.883,-1.351000,1.790000,255.738000,-0.124200,0.295600,0.148400,0.336000,0.249000,-10.160000,0.001727,-0.006000,0.004902
1764076113909903803,2025-11-25 18:38:33.907,-1.350000,1.783000,255.743000,-0.124300,0.290800,0.147400,0.294000,0.262000,-10.107000,0.000673,-0.005841,0.002864
1764076113938205099,2025-11-25 18:38:33.934,-1.348000,1.775000,255.747000,-0.122500,0.291700,0.144300,0.305000,0.248000,-10.118000,0.001109,-0.005535,0.003229
1764076113960001136,2025-11-25 18:38:33.957,-1.347000,1.767000,255.752000,-0.124300,0.290800,0.149500,0.284000,0.221000,-10.135000,0.002215,-0.005823,0.003113
1764076113984593229,2025-11-25 18:38:33.981,-1.343000,1.759000,255.757000,-0.122500,0.288900,0.146500,0.313000,0.244000,-10.120000,0.001575,-0.005059,0.002403
1764076114009194081,2025-11-25 18:38:34.006,-1.341000,1.752000,255.763000,-0.124300,0.290800,0.149500,0.329000,0.246000,-10.115000,0.001353,-0.004551,0.002866
1764076114036542988,2025-11-25 18:38:34.034,-1.338000,1.746000,255.767000,-0.122500,0.288900,0.145400,0.311000,0.245000,-10.097000,0.001892,-0.005190,0.002978
1764076114099734488,2025-11-25 18:38:34.097,-1.333000,1.735000,255.776000,-0.122500,0.288900,0.150700,0.310000,0.213000,-10.109000,0.000885,-0.003370,0.002636
1764076114108766951,2025-11-25 18:38:34.106,-1.331000,1.730000,255.780000,-0.124300,0.289900,0.148500,0.276000,0.229000,-10.065000,0.001376,-0.003208,0.002032
1764076114135204303,2025-11-25 18:38:34.132,-1.330000,1.728000,255.787000,-0.122500,0.288900,0.148600,0.295000,0.230000,-10.109000,0.001573,-0.001467,0.002860
1764076114163277636,2025-11-25 18:38:34.160,-1.328000,1.726000,255.791000,-0.125300,0.287900,0.127300,0.312000,0.206000,-10.116000,0.001908,-0.000644,0.003544
1764076114185155340,2025-11-25 18:38:34.182,-1.327000,1.725000,255.793000,-0.121600,0.290800,0.146500,0.317000,0.238000,-10.082000,0.000536,-0.000180,0.001725
1764076114208775099,2025-11-25 18:38:34.206,-1.327000,1.726000,255.799000,-0.121600,0.288900,0.146500,0.314000,0.220000,-10.117000,0.000650,0.000617,0.003814
1764076114238206062,2025-11-25 18:38:34.235,-1.326000,1.727000,255.803000,-0.123500,0.288800,0.124300,0.278000,0.256000,-10.108000,0.000368,0.000554,0.002429
1764076114260147766,2025-11-25 18:38:34.257,-1.327000,1.729000,255.808000,-0.122400,0.293600,0.146400,0.303000,0.224000,-10.106000,-0.000497,0.002692,0.003233
1764076114285084692,2025-11-25 18:38:34.282,-1.328000,1.732000,255.814000,-0.122400,0.293600,0.143300,0.283000,0.239000,-10.149000,-0.000885,0.002900,0.005481
1764076114308734636,2025-11-25 18:38:34.306,-1.330000,1.736000,255.821000,-0.120800,0.290700,0.124400,0.319000,0.257000,-10.132000,-0.001508,0.003746,0.003768
1764076114338830766,2025-11-25 18:38:34.335,-1.331000,1.741000,255.825000,-0.124300,0.291800,0.145300,0.294000,0.261000,-10.107000,-0.002015,0.003777,0.004179
1764076114360287747,2025-11-25 18:38:34.357,-1.332000,1.746000,255.830000,-0.121500,0.292700,0.148600,0.348000,0.220000,-10.119000,-0.001454,0.003613,0.005088
1764076114385263747,2025-11-25 18:38:34.382,-1.333000,1.751000,255.836000,-0.124300,0.290800,0.145300,0.298000,0.251000,-10.102000,-0.002969,0.003559,0.005114
1764076114407305821,2025-11-25 18:38:34.404,-1.335000,1.758000,255.842000,-0.123400,0.291800,0.150600,0.332000,0.229000,-10.149000,-0.000613,0.003270,0.004910
1764076114437049580,2025-11-25 18:38:34.434,-1.337000,1.763000,255.850000,-0.122400,0.294600,0.148500,0.331000,0.217000,-10.129000,-0.000399,0.004227,0.003680
1764076114460777617,2025-11-25 18:38:34.458,-1.336000,1.770000,255.856000,-0.123400,0.291700,0.147400,0.307000,0.233000,-10.078000,-0.001100,0.003036,0.003439
1764076114485143988,2025-11-25 18:38:34.482,-1.337000,1.775000,255.864000,-0.125100,0.292700,0.148400,0.303000,0.221000,-10.143000,0.000192,0.004365,0.006199
1764076114509137025,2025-11-25 18:38:34.506,-1.336000,1.782000,255.869000,-0.121500,0.292700,0.145400,0.312000,0.269000,-10.111000,-0.000431,0.003681,0.003531
1764076114536936191,2025-11-25 18:38:34.533,-1.336000,1.786000,255.875000,-0.122500,0.289800,0.143300,0.313000,0.224000,-10.134000,-0.000051,0.003520,0.003752
1764076114561848006,2025-11-25 18:38:34.559,-1.334000,1.792000,255.879000,-0.120600,0.294500,0.139100,0.287000,0.231000,-10.159000,0.000428,0.003837,0.004257
1764076114585040765,2025-11-25 18:38:34.582,-1.332000,1.795000,255.884000,-0.121600,0.291700,0.143300,0.335000,0.235000,-10.104000,0.001558,0.002288,0.002929
1764076114609090321,2025-11-25 18:38:34.606,-1.330000,1.800000,255.890000,-0.124400,0.290700,0.121000,0.282000,0.207000,-10.121000,0.002044,0.003700,0.003750
1764076114633928562,2025-11-25 18:38:34.631,-1.327000,1.803000,255.895000,-0.123300,0.295500,0.144200,0.333000,0.254000,-10.143000,0.001719,0.002852,0.003047
1764076114661940025,2025-11-25 18:38:34.658,-1.326000,1.808000,255.900000,-0.122300,0.300300,0.142100,0.278000,0.242000,-10.164000,0.001326,0.002450,0.001729
1764076114686066247,2025-11-25 18:38:34.683,-1.324000,1.810000,255.904000,-0.122500,0.292700,0.144300,0.331000,0.224000,-10.103000,0.001452,0.001745,0.003335
1764076114709547951,2025-11-25 18:38:34.707,-1.323000,1.811000,255.907000,-0.121500,0.293600,0.145400,0.290000,0.236000,-10.103000,0.000386,0.000488,0.001081
1764076114735864284,2025-11-25 18:38:34.732,-1.322000,1.812000,255.910000,-0.122500,0.292700,0.142200,0.309000,0.209000,-10.079000,0.000951,0.000464,0.001389
1764076114762799895,2025-11-25 18:38:34.759,-1.321000,1.813000,255.914000,-0.123400,0.291800,0.149500,0.335000,0.257000,-10.111000,0.000775,0.000685,0.004034
1764076114785613617,2025-11-25 18:38:34.782,-1.322000,1.816000,255.917000,-0.122500,0.290800,0.150700,0.351000,0.229000,-10.113000,-0.001085,-0.000511,0.001652
1764076114807895191,2025-11-25 18:38:34.805,-1.323000,1.815000,255.922000,-0.122500,0.290800,0.143300,0.317000,0.238000,-10.128000,-0.000542,-0.000893,0.002707
1764076114837557173,2025-11-25 18:38:34.834,-1.325000,1.813000,255.924000,-0.122500,0.290800,0.144300,0.316000,0.236000,-10.111000,-0.000669,-0.002036,0.001946
1764076114861498988,2025-11-25 18:38:34.858,-1.327000,1.809000,255.927000,-0.123300,0.293600,0.143200,0.323000,0.227000,-10.128000,-0.001887,-0.001828,0.002014
1764076114887148580,2025-11-25 18:38:34.884,-1.330000,1.808000,255.932000,-0.121500,0.294600,0.145400,0.346000,0.241000,-10.154000,-0.002477,-0.002741,0.003610
1764076114909848062,2025-11-25 18:38:34.907,-1.334000,1.804000,255.936000,-0.122400,0.294600,0.146400,0.319000,0.245000,-10.114000,-0.003484,-0.002617,0.001837
1764076114935707562,2025-11-25 18:38:34.932,-1.338000,1.800000,255.941000,-0.123200,0.298400,0.141100,0.291000,0.229000,-10.143000,-0.003909,-0.004307,0.004042
1764076114962720358,2025-11-25 18:38:34.960,-1.341000,1.793000,255.949000,-0.121500,0.296400,0.123200,0.340000,0.241000,-10.131000,-0.002470,-0.004218,0.004745
1764076114985225673,2025-11-25 18:38:34.982,-1.345000,1.788000,255.957000,-0.123300,0.293600,0.143200,0.294000,0.262000,-10.115000,-0.002822,-0.005122,0.003680
1764076115009385543,2025-11-25 18:38:35.007,-1.348000,1.781000,255.964000,-0.122500,0.290800,0.148500,0.342000,0.218000,-10.109000,-0.001314,-0.005247,0.004926
1764076115035510339,2025-11-25 18:38:35.032,-1.352000,1.774000,255.970000,-0.121500,0.294600,0.147500,0.302000,0.295000,-10.096000,-0.003133,-0.004098,0.003851
1764076115101505173,2025-11-25 18:38:35.099,-1.359000,1.761000,255.986000,-0.121600,0.290800,0.144400,0.302000,0.243000,-10.163000,-0.001416,-0.004525,0.005991
1764076115110585061,2025-11-25 18:38:35.108,-1.361000,1.754000,255.996000,-0.122500,0.290800,0.146400,0.331000,0.242000,-10.137000,-0.001709,-0.004781,0.004688
1764076115135027432,2025-11-25 18:38:35.132,-1.362000,1.746000,256.004000,-0.122500,0.289800,0.147500,0.290000,0.233000,-10.106000,0.000197,-0.005171,0.006375
1764076115158728524,2025-11-25 18:38:35.155,-1.362000,1.741000,256.011000,-0.122500,0.290700,0.128500,0.316000,0.271000,-10.109000,0.000253,-0.004266,0.004634
1764076115183563987,2025-11-25 18:38:35.180,-1.363000,1.733000,256.022000,-0.121600,0.288800,0.145400,0.308000,0.241000,-10.128000,-0.000183,-0.002693,0.005121
1764076115209524210,2025-11-25 18:38:35.206,-1.360000,1.729000,256.029000,-0.121600,0.288900,0.145400,0.278000,0.244000,-10.130000,0.002231,-0.002681,0.005805
1764076115233199635,2025-11-25 18:38:35.230,-1.357000,1.723000,256.035000,-0.120700,0.287900,0.148700,0.317000,0.259000,-10.127000,0.002429,-0.002010,0.004643
1764076115261258987,2025-11-25 18:38:35.259,-1.354000,1.722000,256.042000,-0.121600,0.289800,0.149700,0.278000,0.221000,-10.084000,0.002648,-0.001024,0.003817
1764076115285171561,2025-11-25 18:38:35.282,-1.350000,1.721000,256.051000,-0.122400,0.293600,0.144300,0.287000,0.216000,-10.125000,0.003410,0.000011,0.005320
1764076115308930839,2025-11-25 18:38:35.306,-1.345000,1.723000,256.058000,-0.123300,0.295500,0.145300,0.269000,0.237000,-10.122000,0.002405,0.002115,0.004075
1764076115335781358,2025-11-25 18:38:35.332,-1.340000,1.724000,256.064000,-0.121600,0.290700,0.127500,0.334000,0.245000,-10.150000,0.002881,0.002331,0.004666
1764076115363178987,2025-11-25 18:38:35.361,-1.337000,1.730000,256.069000,-0.119800,0.289800,0.144500,0.291000,0.256000,-10.144000,0.002704,0.004041,0.002799
1764076115386022765,2025-11-25 18:38:35.383,-1.333000,1.734000,256.074000,-0.119800,0.289800,0.148700,0.324000,0.229000,-10.115000,0.002005,0.003818,0.001793
1764076115410182246,2025-11-25 18:38:35.407,-1.329000,1.741000,256.078000,-0.122500,0.288900,0.147500,0.269000,0.240000,-10.140000,0.002885,0.004119,0.005659
1764076115435492617,2025-11-25 18:38:35.432,-1.325000,1.748000,256.082000,-0.121400,0.297400,0.148500,0.311000,0.239000,-10.102000,0.002217,0.005638,0.003170
1764076115463073580,2025-11-25 18:38:35.460,-1.321000,1.754000,256.088000,-0.121500,0.295500,0.144300,0.308000,0.233000,-10.118000,0.001333,0.005594,0.003341
1764076115485374487,2025-11-25 18:38:35.482,-1.319000,1.763000,256.093000,-0.121600,0.290800,0.148600,0.321000,0.220000,-10.136000,0.001651,0.007641,0.005655
1764076115507729506,2025-11-25 18:38:35.505,-1.316000,1.771000,256.098000,-0.120600,0.295500,0.145400,0.321000,0.246000,-10.144000,0.000224,0.006242,0.003253
1764076115538771469,2025-11-25 18:38:35.536,-1.314000,1.783000,256.102000,-0.122400,0.293600,0.147500,0.331000,0.240000,-10.150000,0.000670,0.006019,0.004357
1764076115560112728,2025-11-25 18:38:35.557,-1.314000,1.790000,256.108000,-0.121600,0.290700,0.143300,0.306000,0.213000,-10.115000,0.000228,0.004971,0.003428
1764076115586649932,2025-11-25 18:38:35.583,-1.313000,1.798000,256.117000,-0.120600,0.294600,0.146500,0.329000,0.236000,-10.110000,-0.001589,0.004255,0.004402
1764076115607347450,2025-11-25 18:38:35.605,-1.315000,1.804000,256.125000,-0.121500,0.295500,0.146400,0.346000,0.210000,-10.136000,-0.001704,0.003969,0.003910
1764076115638385802,2025-11-25 18:38:35.635,-1.317000,1.811000,256.131000,-0.120600,0.292600,0.146500,0.316000,0.245000,-10.134000,-0.001095,0.001798,0.005043
1764076115660941469,2025-11-25 18:38:35.658,-1.318000,1.815000,256.139000,-0.124100,0.298400,0.142100,0.335000,0.242000,-10.126000,-0.002429,0.002979,0.005532
1764076115684301728,2025-11-25 18:38:35.681,-1.321000,1.819000,256.148000,-0.121600,0.292600,0.124300,0.333000,0.227000,-10.129000,-0.003679,0.001668,0.006857
1764076115709169006,2025-11-25 18:38:35.706,-1.324000,1.821000,256.157000,-0.118900,0.294400,0.121300,0.337000,0.240000,-10.115000,-0.003249,0.001439,0.005555
1764076115737449431,2025-11-25 18:38:35.734,-1.329000,1.821000,256.167000,-0.120600,0.293600,0.147600,0.302000,0.212000,-10.098000,-0.003493,-0.000155,0.007589
1764076115761112672,2025-11-25 18:38:35.758,-1.332000,1.819000,256.175000,-0.121600,0.292700,0.144400,0.347000,0.249000,-10.123000,-0.003089,-0.001360,0.005939
1764076115785503617,2025-11-25 18:38:35.783,-1.337000,1.817000,256.184000,-0.119700,0.298300,0.127500,0.300000,0.249000,-10.137000,-0.003584,-0.000689,0.004285
1764076115809593913,2025-11-25 18:38:35.807,-1.341000,1.815000,256.195000,-0.122400,0.298300,0.124200,0.365000,0.208000,-10.141000,-0.002519,-0.002866,0.007879
1764076115836863913,2025-11-25 18:38:35.833,-1.346000,1.811000,256.204000,-0.120600,0.295500,0.146500,0.324000,0.264000,-10.097000,-0.003515,-0.003513,0.006018
1764076115858289857,2025-11-25 18:38:35.856,-1.349000,1.807000,256.215000,-0.121600,0.292600,0.142300,0.320000,0.250000,-10.091000,-0.002550,-0.002903,0.005970
1764076115887167135,2025-11-25 18:38:35.884,-1.353000,1.802000,256.222000,-0.121500,0.292700,0.147500,0.317000,0.238000,-10.135000,-0.001338,-0.002925,0.005752
1764076115910514580,2025-11-25 18:38:35.908,-1.355000,1.797000,256.230000,-0.121600,0.295500,0.125400,0.306000,0.233000,-10.102000,-0.002024,-0.004851,0.004902
1764076115938509339,2025-11-25 18:38:35.935,-1.356000,1.789000,256.237000,-0.121600,0.289800,0.146500,0.312000,0.234000,-10.152000,-0.000138,-0.003988,0.005158
1764076115959810728,2025-11-25 18:38:35.957,-1.357000,1.784000,256.243000,-0.120700,0.291700,0.144400,0.274000,0.254000,-10.101000,-0.000243,-0.004600,0.005422
1764076115986384876,2025-11-25 18:38:35.984,-1.358000,1.774000,256.249000,-0.120800,0.290700,0.122300,0.322000,0.238000,-10.146000,0.000461,-0.005643,0.003328
1764076116010170616,2025-11-25 18:38:36.007,-1.358000,1.769000,256.254000,-0.121500,0.296500,0.144300,0.317000,0.232000,-10.128000,0.000423,-0.003501,0.004886
1764076116038655450,2025-11-25 18:38:36.035,-1.358000,1.762000,256.259000,-0.119600,0.297400,0.147600,0.332000,0.259000,-10.081000,0.000064,-0.003652,0.003171
1764076116104326653,2025-11-25 18:38:36.102,-1.356000,1.752000,256.271000,-0.121500,0.293600,0.143300,0.319000,0.226000,-10.137000,0.002138,-0.004138,0.005905
1764076116113507765,2025-11-25 18:38:36.111,-1.352000,1.747000,256.275000,-0.118700,0.298300,0.144500,0.280000,0.256000,-10.072000,0.002099,-0.002282,0.002464
1764076116135522042,2025-11-25 18:38:36.132,-1.350000,1.743000,256.278000,-0.123400,0.289800,0.145300,0.330000,0.233000,-10.111000,0.002657,-0.001761,0.004325
1764076116160482357,2025-11-25 18:38:36.158,-1.348000,1.739000,256.281000,-0.119700,0.299200,0.123300,0.300000,0.267000,-10.166000,0.001907,-0.004221,0.004404
1764076116185125616,2025-11-25 18:38:36.182,-1.346000,1.737000,256.286000,-0.119800,0.294500,0.126500,0.307000,0.236000,-10.117000,0.000774,-0.000688,0.003588
1764076116209075672,2025-11-25 18:38:36.206,-1.342000,1.734000,256.294000,-0.118800,0.294500,0.140300,0.267000,0.235000,-10.146000,0.002477,-0.000158,0.006152
1764076116237862894,2025-11-25 18:38:36.235,-1.339000,1.732000,256.299000,-0.120700,0.292600,0.142300,0.294000,0.235000,-10.104000,0.002810,-0.000816,0.005174
1764076116260730820,2025-11-25 18:38:36.258,-1.335000,1.732000,256.306000,-0.118800,0.295400,0.127600,0.292000,0.247000,-10.129000,0.002561,-0.000289,0.006841
1764076116285087635,2025-11-25 18:38:36.282,-1.332000,1.732000,256.314000,-0.118900,0.292500,0.126600,0.286000,0.220000,-10.133000,0.002615,-0.000230,0.005578
1764076116309509024,2025-11-25 18:38:36.307,-1.329000,1.732000,256.323000,-0.119800,0.288800,0.146600,0.289000,0.238000,-10.114000,0.001090,0.001714,0.005661
1764076116338787339,2025-11-25 18:38:36.335,-1.327000,1.737000,256.331000,-0.120600,0.292600,0.147600,0.296000,0.237000,-10.123000,0.001076,0.003558,0.006759
1764076116360820116,2025-11-25 18:38:36.358,-1.325000,1.739000,256.341000,-0.120500,0.299300,0.147500,0.309000,0.236000,-10.108000,0.002027,0.002560,0.006613
1764076116384827579,2025-11-25 18:38:36.382,-1.321000,1.745000,256.351000,-0.121600,0.294500,0.130600,0.299000,0.235000,-10.100000,0.001668,0.002958,0.006430
1764076116409200579,2025-11-25 18:38:36.406,-1.320000,1.748000,256.358000,-0.118000,0.291600,0.128700,0.323000,0.215000,-10.115000,0.000739,0.002082,0.007617
1764076116439006690,2025-11-25 18:38:36.435,-1.318000,1.753000,256.367000,-0.120600,0.294500,0.146500,0.291000,0.249000,-10.125000,0.000684,0.003459,0.006883
1764076116460924450,2025-11-25 18:38:36.458,-1.316000,1.758000,256.376000,-0.121600,0.291700,0.147500,0.355000,0.208000,-10.118000,0.001034,0.003061,0.006975
1764076116484672005,2025-11-25 18:38:36.482,-1.314000,1.764000,256.384000,-0.118800,0.292600,0.147700,0.307000,0.245000,-10.114000,0.000608,0.003631,0.006856
1764076116509530690,2025-11-25 18:38:36.506,-1.314000,1.770000,256.394000,-0.119700,0.294500,0.146500,0.328000,0.252000,-10.124000,-0.000505,0.003162,0.005261
1764076116537582727,2025-11-25 18:38:36.534,-1.314000,1.775000,256.405000,-0.118800,0.293600,0.147700,0.282000,0.227000,-10.145000,0.000115,0.004301,0.007423
1764076116559354061,2025-11-25 18:38:36.557,-1.315000,1.781000,256.413000,-0.117800,0.298300,0.145600,0.330000,0.221000,-10.138000,-0.000751,0.003104,0.007387
1764076116585881135,2025-11-25 18:38:36.583,-1.314000,1.785000,256.422000,-0.118000,0.293500,0.126600,0.324000,0.229000,-10.119000,-0.000842,0.003423,0.006255
1764076116608245968,2025-11-25 18:38:36.605,-1.315000,1.791000,256.431000,-0.118800,0.294500,0.144500,0.314000,0.215000,-10.118000,-0.000753,0.002708,0.006740
1764076116637431579,2025-11-25 18:38:36.635,-1.316000,1.794000,256.440000,-0.119700,0.292600,0.146600,0.295000,0.239000,-10.121000,-0.001745,0.001577,0.004962
1764076116662413394,2025-11-25 18:38:36.659,-1.318000,1.798000,256.447000,-0.118800,0.293600,0.145500,0.308000,0.221000,-10.129000,-0.001657,0.001022,0.004355
1764076116685471561,2025-11-25 18:38:36.683,-1.321000,1.800000,256.455000,-0.118800,0.295500,0.148700,0.305000,0.218000,-10.129000,-0.001626,0.000735,0.005882
1764076116709432820,2025-11-25 18:38:36.706,-1.322000,1.802000,256.463000,-0.118800,0.292600,0.147700,0.310000,0.241000,-10.122000,-0.002036,-0.000335,0.004347
1764076116737444894,2025-11-25 18:38:36.734,-1.326000,1.802000,256.471000,-0.119700,0.293600,0.143400,0.310000,0.208000,-10.141000,-0.002641,0.000401,0.004707
1764076116762629005,2025-11-25 18:38:36.759,-1.329000,1.803000,256.477000,-0.119700,0.294500,0.146500,0.283000,0.247000,-10.141000,-0.003025,0.000220,0.004883
1764076116784393338,2025-11-25 18:38:36.781,-1.332000,1.802000,256.484000,-0.117800,0.297400,0.148700,0.344000,0.230000,-10.132000,-0.003345,0.000208,0.004792
1764076116808946283,2025-11-25 18:38:36.806,-1.336000,1.802000,256.493000,-0.118700,0.297400,0.142300,0.305000,0.221000,-10.125000,-0.002177,-0.001529,0.006206
1764076116836929986,2025-11-25 18:38:36.833,-1.340000,1.799000,256.500000,-0.121700,0.289700,0.123300,0.335000,0.229000,-10.121000,-0.003058,-0.001999,0.005041
1764076116863007431,2025-11-25 18:38:36.860,-1.343000,1.797000,256.505000,-0.122500,0.291700,0.145400,0.293000,0.245000,-10.132000,-0.003078,-0.002693,0.006983
