Timestamp,Time,Roll,Pitch,Yaw,Velocity_Increment_X,Velocity_Increment_Y,Velocity_Increment_Z,Acc_X,Acc_Y,Acc_Z,Gyro_X,Gyro_Y,Gyro_Z,Mag_X,Mag_Y,Mag_Z,Pressure
1764076094214735407,2025-11-25 18:38:14.194,0.563797,0.959223,208.803680,0.013436,0.010233,0.978651,0.101763,0.198455,9.767572,-0.000477,-0.005390,-0.000755,-0.163614,-0.564627,-1.194065,100309.0000
1764076094305920648,2025-11-25 18:38:14.295,0.565756,0.968897,208.823563,0.014500,0.009798,0.978718,0.174270,0.009447,9.814809,-0.002343,0.001133,-0.006040,-0.163124,-0.563659,-1.193605,100308.0000
1764076094398216648,2025-11-25 18:38:14.394,0.570780,0.971086,208.847168,0.014772,0.010330,0.978147,0.129504,0.148307,9.750518,0.001902,0.000191,-0.000301,-0.163111,-0.565509,-1.190688,100312.0000
1764076094497750148,2025-11-25 18:38:14.494,0.574075,0.963556,208.877792,0.014868,0.010113,0.978182,0.169950,0.112758,9.801053,0.000816,0.001963,-0.011961,-0.163122,-0.565539,-1.192132,100309.0000
1764076094606111074,2025-11-25 18:38:14.593,0.581527,0.948659,208.911301,0.013889,0.010140,0.978329,0.144210,0.014626,9.784184,0.008891,0.001947,-0.001928,-0.160734,-0.566047,-1.194086,100300.0000
1764076094699284722,2025-11-25 18:38:14.690,0.591010,0.946480,208.941025,0.012775,0.010938,0.978368,0.106762,0.229515,9.787293,0.001895,0.000166,-0.003771,-0.162158,-0.566002,-1.191657,100304.0000
1764076094798830611,2025-11-25 18:38:14.793,0.597493,0.954702,208.966263,0.012791,0.010377,0.978431,0.160553,-0.005874,9.802874,0.005664,-0.005788,-0.003545,-0.158792,-0.564107,-1.193180,100302.0000
1764076094898904629,2025-11-25 18:38:14.893,0.595765,0.968912,208.990082,0.012805,0.010710,0.978088,0.117859,0.177411,9.753869,0.001698,-0.003679,0.002961,-0.160232,-0.566461,-1.191197,100304.0000
1764076094999787851,2025-11-25 18:38:14.993,0.587120,0.982630,209.011688,0.014322,0.010972,0.978393,0.153500,0.098854,9.805571,-0.004798,-0.003452,-0.008105,-0.162158,-0.566002,-1.191657,100307.0000
1764076095098438740,2025-11-25 18:38:15.087,0.577267,0.994691,209.036575,0.015385,0.010428,0.978443,0.158181,0.048152,9.783447,0.000677,-0.000913,-0.002856,-0.156354,-0.564482,-1.188877,100309.0000
1764076095204311944,2025-11-25 18:38:15.196,0.568709,0.992597,209.066879,0.015781,0.009881,0.978984,0.131505,0.176521,9.790401,-0.004232,0.000872,-0.007938,-0.158785,-0.566445,-1.190737,100306.0000
1764076095301167999,2025-11-25 18:38:15.293,0.570732,0.973908,209.099655,0.015614,0.009076,0.979145,0.174837,-0.011208,9.816154,0.009805,0.002160,-0.007374,-0.160227,-0.566919,-1.190227,100302.0000
1764076095404666684,2025-11-25 18:38:15.395,0.579575,0.947094,209.128159,0.013943,0.009493,0.978848,0.098789,0.192164,9.771161,-0.001063,0.006588,-0.001888,-0.159273,-0.566935,-1.191204,100307.0000
1764076095506793055,2025-11-25 18:38:15.493,0.595935,0.933298,209.155014,0.012569,0.010030,0.978784,0.136235,0.072787,9.800598,0.005210,-0.000698,-0.005308,-0.157332,-0.566885,-1.189307,100306.0000
1764076095615779184,2025-11-25 18:38:15.594,0.606418,0.939595,209.176041,0.011648,0.010933,0.978177,0.122042,0.095243,9.761634,0.000244,-0.005121,0.002201,-0.156903,-0.568906,-1.194580,100307.0000
1764076095698470055,2025-11-25 18:38:15.694,0.603872,0.965698,209.203735,0.012062,0.011803,0.977818,0.113254,0.181749,9.783533,0.003914,-0.010503,-0.010883,-0.157827,-0.566450,-1.191233,100306.0000
1764076095800534703,2025-11-25 18:38:15.793,0.595961,0.991637,209.234650,0.013790,0.010533,0.977875,0.171126,-0.004869,9.781077,-0.002886,-0.005399,-0.004977,-0.157830,-0.567873,-1.190729,100304.0000
1764076095896181443,2025-11-25 18:38:15.893,0.585377,1.012832,209.267365,0.014447,0.010582,0.978170,0.124327,0.189395,9.767347,0.000859,-0.005772,-0.002506,-0.157367,-0.569335,-1.192159,100304.0000
1764076095996280814,2025-11-25 18:38:15.993,0.576614,1.026645,209.300507,0.014866,0.009809,0.978713,0.171284,0.028500,9.815274,0.000849,-0.002621,-0.010698,-0.155908,-0.568342,-1.190751,100306.0000
1764076096096356295,2025-11-25 18:38:16.093,0.574457,1.024509,209.328354,0.015512,0.009507,0.979066,0.149418,0.113720,9.778955,0.004566,0.005106,-0.000209,-0.154944,-0.568806,-1.190276,100304.0000
1764076096196176906,2025-11-25 18:38:16.193,0.576940,1.008197,209.351044,0.015195,0.010258,0.978780,0.172188,0.139153,9.798868,0.000022,0.001464,-0.004905,-0.158808,-0.570276,-1.191160,100304.0000
1764076096296043147,2025-11-25 18:38:16.293,0.583529,0.979548,209.374237,0.015089,0.009772,0.978561,0.160952,0.025948,9.776942,0.005464,0.008519,-0.000650,-0.154953,-0.568358,-1.191728,100302.0000
1764076096395723017,2025-11-25 18:38:16.393,0.585643,0.949478,209.402557,0.013561,0.010699,0.978349,0.094596,0.214714,9.769220,-0.000548,0.002758,-0.002595,-0.154949,-0.567403,-1.191742,100304.0000
1764076096497435887,2025-11-25 18:38:16.489,0.583260,0.935646,209.431503,0.011949,0.010116,0.978251,0.157363,-0.006635,9.800426,-0.000557,0.000173,-0.006246,-0.152550,-0.568825,-1.191756,100298.0000
1764076096616243906,2025-11-25 18:38:16.596,0.580737,0.945519,209.465698,0.011237,0.010488,0.978585,0.079182,0.199780,9.753970,0.002318,-0.006493,-0.001959,-0.154467,-0.569759,-1.190269,100300.0000
1764076096699450147,2025-11-25 18:38:16.693,0.580007,0.972101,209.499374,0.011935,0.010084,0.978521,0.156212,0.045647,9.805155,-0.003357,-0.008001,-0.008250,-0.153510,-0.568352,-1.191749,100302.0000
1764076096795852017,2025-11-25 18:38:16.793,0.588933,1.007159,209.528870,0.013455,0.009730,0.978320,0.135436,0.110239,9.760462,0.001251,-0.008688,0.000485,-0.152557,-0.568846,-1.192719,100302.0000
1764076096896298369,2025-11-25 18:38:16.893,0.598420,1.028183,209.553619,0.014633,0.010648,0.978241,0.160859,0.163289,9.794141,0.000888,-0.006607,-0.008664,-0.153998,-0.571200,-1.190735,100293.0000
1764076096997922665,2025-11-25 18:38:16.993,0.600786,1.036222,209.580734,0.016012,0.010621,0.978229,0.167600,0.033846,9.785273,0.000901,0.003705,-0.003045,-0.153996,-0.569309,-1.191727,100304.0000
1764076097099673665,2025-11-25 18:38:17.093,0.590653,1.027865,209.616653,0.015494,0.011844,0.978306,0.134357,0.223948,9.774093,-0.001456,0.000365,-0.007890,-0.153504,-0.567864,-1.191275,100306.0000
1764076097196062665,2025-11-25 18:38:17.193,0.578876,1.014069,209.648682,0.015080,0.010211,0.978874,0.169678,-0.008988,9.781060,-0.003560,0.000204,-0.005128,-0.154933,-0.567362,-1.189817,100305.0000
1764076097295994517,2025-11-25 18:38:17.293,0.568782,0.991230,209.682434,0.014218,0.009270,0.978921,0.110650,0.165419,9.779863,-0.000659,0.003042,-0.002303,-0.153054,-0.571246,-1.193156,100302.0000
1764076097410492239,2025-11-25 18:38:17.398,0.570906,0.973444,209.709274,0.012835,0.009141,0.978720,0.148540,0.028973,9.807397,0.007827,-0.001678,-0.008043,-0.151104,-0.570699,-1.190304,100308.0000
1764076097497433961,2025-11-25 18:38:17.488,0.584794,0.969935,209.737823,0.012455,0.009624,0.978292,0.103768,0.145196,9.754283,0.002405,-0.001779,0.001820,-0.149647,-0.568771,-1.189873,100299.0000
1764076097593772257,2025-11-25 18:38:17.586,0.601863,0.974737,209.767548,0.012537,0.010413,0.977661,0.130165,0.148257,9.806232,0.002721,-0.001872,-0.007312,-0.151580,-0.571158,-1.189326,100306.0000
1764076097701225924,2025-11-25 18:38:17.689,0.603885,0.991584,209.799377,0.013394,0.010767,0.977776,0.158653,0.049096,9.777866,-0.001746,-0.003883,0.000184,-0.151610,-0.571707,-1.192689,100307.0000
1764076097803349461,2025-11-25 18:38:17.788,0.600214,1.006716,209.834259,0.013851,0.011326,0.977967,0.131465,0.220248,9.778016,0.004115,-0.003753,-0.007998,-0.150628,-0.569294,-1.191777,100305.0000
1764076097898934220,2025-11-25 18:38:17.892,0.588308,1.016733,209.872818,0.014497,0.010301,0.978682,0.171186,-0.008345,9.798624,-0.006110,-0.002316,-0.005603,-0.152078,-0.572146,-1.190749,100304.0000
1764076097996539090,2025-11-25 18:38:17.993,0.587280,1.027202,209.909409,0.014439,0.009628,0.979005,0.124696,0.187765,9.760238,0.001996,-0.000500,-0.005143,-0.152074,-0.570724,-1.191252,100302.0000
1764076098097625960,2025-11-25 18:38:18.094,0.591571,1.036585,209.948334,0.013840,0.009612,0.979562,0.146716,0.071245,9.809684,0.002980,-0.003447,-0.009700,-0.150628,-0.571652,-1.190296,100305.0000
1764076098196124886,2025-11-25 18:38:18.193,0.595503,1.042542,209.974747,0.013918,0.009871,0.978844,0.140719,0.078242,9.757258,0.000118,0.002901,0.003452,-0.150629,-0.571184,-1.190785,100310.0000
1764076098295927923,2025-11-25 18:38:18.293,0.602443,1.044281,209.996292,0.014353,0.010988,0.978185,0.139543,0.158205,9.799619,0.004826,-0.002333,-0.005885,-0.148713,-0.571196,-1.191776,100306.0000
1764076098398595164,2025-11-25 18:38:18.395,0.600782,1.038664,210.018234,0.015420,0.010690,0.977769,0.191278,0.016061,9.775608,-0.004387,0.003855,-0.002915,-0.149673,-0.571668,-1.191273,100304.0000
1764076098495744516,2025-11-25 18:38:18.493,0.597877,1.018275,210.048981,0.015284,0.011682,0.977794,0.143064,0.213466,9.768733,0.000724,-0.000066,-0.005775,-0.147252,-0.571617,-1.189383,100308.0000
1764076098595334071,2025-11-25 18:38:18.593,0.582159,0.986969,210.089645,0.014721,0.010225,0.978366,0.168923,-0.009905,9.801238,-0.001413,0.005056,-0.005108,-0.146302,-0.572588,-1.190346,100304.0000
1764076098696192405,2025-11-25 18:38:18.693,0.569202,0.956799,210.127716,0.012592,0.009634,0.978508,0.072628,0.189157,9.779335,-0.001881,0.002850,-0.002321,-0.147781,-0.575044,-1.193176,100300.0000
1764076098796143497,2025-11-25 18:38:18.793,0.572960,0.951688,210.161713,0.011116,0.008793,0.978999,0.126375,0.011328,9.809729,0.006523,-0.003225,-0.006698,-0.148257,-0.574091,-1.193183,100304.0000
1764076098896126219,2025-11-25 18:38:18.893,0.583730,0.970190,210.187943,0.010864,0.009054,0.978315,0.072602,0.146071,9.756453,0.004609,-0.003858,0.000278,-0.148711,-0.571664,-1.191288,100303.0000
1764076098995341367,2025-11-25 18:38:18.993,0.596635,1.007982,210.213776,0.012688,0.009827,0.977991,0.173789,0.063537,9.808364,0.004215,-0.007666,-0.008949,-0.145855,-0.573145,-1.194196,100295.0000
1764076099095838645,2025-11-25 18:38:19.093,0.607479,1.046290,210.241821,0.014888,0.010607,0.978031,0.155901,0.144547,9.761114,0.004065,-0.006227,-0.001659,-0.147306,-0.575530,-1.193657,100297.0000
1764076099196208849,2025-11-25 18:38:19.193,0.612226,1.066917,210.273636,0.016174,0.011209,0.978403,0.189455,0.106716,9.812093,0.001822,-0.004388,-0.009656,-0.145361,-0.574525,-1.191775,100302.0000
1764076099295516904,2025-11-25 18:38:19.292,0.609872,1.061714,210.311783,0.016499,0.011278,0.978963,0.131584,0.116326,9.760488,0.000395,-0.002317,-0.003726,-0.142957,-0.574047,-1.192299,100306.0000
1764076099395732200,2025-11-25 18:38:19.393,0.602129,1.042045,210.347244,0.015385,0.011088,0.979319,0.164709,0.098646,9.827173,-0.004368,0.003340,-0.008739,-0.144903,-0.575997,-1.193686,100304.0000
1764076099495523182,2025-11-25 18:38:19.492,0.592332,1.012095,210.380661,0.014158,0.009874,0.978906,0.115302,0.099828,9.758639,0.002508,0.003729,-0.002094,-0.145359,-0.576405,-1.190301,100306.0000
1764076099596612441,2025-11-25 18:38:19.593,0.592147,0.991796,210.410843,0.013008,0.009842,0.978394,0.146364,0.102414,9.813972,-0.001499,-0.002293,-0.007291,-0.143916,-0.572628,-1.192788,100304.0000
1764076099696339163,2025-11-25 18:38:19.693,0.595511,0.984459,210.441315,0.012236,0.009928,0.977649,0.078550,0.108461,9.727874,0.004936,-0.001606,0.001051,-0.142966,-0.575958,-1.192270,100306.0000
1764076099795829848,2025-11-25 18:38:19.793,0.592259,0.990104,210.471481,0.012163,0.010391,0.977830,0.145370,0.112767,9.811396,-0.002748,-0.001375,-0.013850,-0.141993,-0.575922,-1.190840,100295.0000
1764076099895324441,2025-11-25 18:38:19.892,0.587855,1.007380,210.509781,0.012985,0.010270,0.977950,0.118059,0.106889,9.746637,0.006247,-0.005136,-0.000969,-0.140553,-0.574514,-1.192327,100312.0000
1764076099996213200,2025-11-25 18:38:19.993,0.580596,1.025046,210.545959,0.013746,0.010463,0.978016,0.158617,0.106148,9.815038,0.000879,-0.003346,-0.007297,-0.141494,-0.573989,-1.189913,100306.0000
1764076100095672163,2025-11-25 18:38:20.092,0.579277,1.040493,210.575546,0.014644,0.009850,0.978541,0.116932,0.107623,9.739413,0.004686,-0.002983,-0.001104,-0.142965,-0.576425,-1.191781,100304.0000
1764076100195837978,2025-11-25 18:38:20.193,0.583540,1.045334,210.603592,0.015483,0.009904,0.978940,0.164985,0.085220,9.815707,-0.001285,-0.000580,-0.010164,-0.141513,-0.575453,-1.191336,100305.0000
1764076100296613218,2025-11-25 18:38:20.293,0.588198,1.040508,210.631500,0.015528,0.009621,0.978874,0.129216,0.105316,9.761955,0.004160,0.002722,-0.000238,-0.140583,-0.577421,-1.194209,100301.0000
1764076100395965441,2025-11-25 18:38:20.393,0.597051,1.026765,210.663712,0.014585,0.010242,0.979127,0.164363,0.106322,9.826002,-0.000351,0.002051,-0.007780,-0.141501,-0.576835,-1.188906,100311.0000
1764076100495832866,2025-11-25 18:38:20.493,0.609747,1.014794,210.698929,0.013379,0.010274,0.978626,0.105118,0.112346,9.749539,0.002967,0.004052,-0.002353,-0.139116,-0.574995,-1.192823,100313.0000
1764076100595562903,2025-11-25 18:38:20.593,0.612902,1.012650,210.730408,0.012757,0.010964,0.978332,0.145778,0.112925,9.812607,-0.003297,-0.005448,-0.007864,-0.139570,-0.576338,-1.188461,100302.0000
1764076100695965422,2025-11-25 18:38:20.693,0.610375,1.019404,210.758865,0.012733,0.010864,0.977652,0.139931,0.118791,9.752130,0.002618,-0.002298,-0.000092,-0.140549,-0.577329,-1.189876,100299.0000
1764076100795766551,2025-11-25 18:38:20.793,0.597094,1.028615,210.787598,0.013620,0.010689,0.977444,0.157081,0.100312,9.809433,-0.003767,-0.004170,-0.009077,-0.141511,-0.575920,-1.190847,100303.0000
1764076100895534144,2025-11-25 18:38:20.892,0.590569,1.036165,210.814468,0.014205,0.010327,0.977682,0.131740,0.100583,9.740569,0.006272,0.000682,-0.003234,-0.138650,-0.578804,-1.192290,100300.0000
1764076100995601700,2025-11-25 18:38:20.992,0.578451,1.037719,210.843414,0.014343,0.010382,0.978399,0.163067,0.098661,9.801217,-0.003281,-0.002203,-0.007101,-0.140556,-0.578762,-1.189854,100307.0000
1764076101096060440,2025-11-25 18:38:21.093,0.573649,1.035127,210.874283,0.014109,0.009433,0.979128,0.123020,0.084282,9.759576,0.001734,-0.003943,-0.000879,-0.137672,-0.577814,-1.190875,100306.0000
1764076101196310459,2025-11-25 18:38:21.193,0.575469,1.035902,210.907013,0.014038,0.009783,0.979533,0.148537,0.105063,9.818876,0.000330,0.000822,-0.007573,-0.139115,-0.577820,-1.190853,100302.0000
1764076101296008051,2025-11-25 18:38:21.293,0.586579,1.033181,210.935837,0.014056,0.009603,0.979169,0.129923,0.071791,9.757341,0.005309,-0.000245,-0.000524,-0.139116,-0.576408,-1.191838,100307.0000
1764076101396186218,2025-11-25 18:38:21.393,0.597908,1.028581,210.967468,0.014314,0.010212,0.978800,0.140321,0.136911,9.806003,-0.000697,0.000072,-0.010103,-0.136224,-0.576852,-1.190910,100304.0000
1764076101495650033,2025-11-25 18:38:21.493,0.606406,1.022668,210.995789,0.014073,0.010421,0.978170,0.140099,0.095891,9.743738,0.002302,-0.005185,-0.000486,-0.134802,-0.579732,-1.191851,100302.0000
1764076101596511792,2025-11-25 18:38:21.593,0.613594,1.020022,211.020370,0.013672,0.010967,0.977770,0.139535,0.135906,9.805026,0.008955,-0.000761,-0.008638,-0.135258,-0.577783,-1.189947,100305.0000
1764076101696665310,2025-11-25 18:38:21.693,0.610307,1.020526,211.042664,0.012874,0.011475,0.977281,0.087538,0.076617,9.745993,-0.001307,-0.000997,-0.001219,-0.136229,-0.578753,-1.190400,100307.0000
1764076101796614347,2025-11-25 18:38:21.793,0.600431,1.024307,211.065445,0.013015,0.011146,0.977780,0.156040,0.131338,9.807193,0.001373,-0.003228,-0.007634,-0.137177,-0.578248,-1.188949,100310.0000
1764076101897011495,2025-11-25 18:38:21.893,0.584336,1.034784,211.095078,0.013263,0.009952,0.977922,0.118032,0.091082,9.768260,0.000640,-0.004865,-0.003233,-0.134795,-0.578299,-1.191873,100303.0000
1764076101995641977,2025-11-25 18:38:21.993,0.578696,1.051260,211.130035,0.014139,0.009621,0.978966,0.177456,0.094550,9.822640,0.000547,-0.005460,-0.010155,-0.135264,-0.579683,-1.189437,100302.0000
1764076102095655699,2025-11-25 18:38:22.093,0.583655,1.058523,211.157547,0.014856,0.008972,0.979297,0.159429,0.085010,9.760915,0.002917,-0.001298,-0.003035,-0.134800,-0.579254,-1.191858,100306.0000
1764076102196089402,2025-11-25 18:38:22.193,0.594604,1.057959,211.176682,0.014781,0.009557,0.979148,0.173207,0.123285,9.829896,0.008530,-0.001298,-0.006220,-0.134291,-0.576823,-1.189976,100301.0000
1764076102295498458,2025-11-25 18:38:22.292,0.609288,1.049219,211.200409,0.015156,0.009833,0.978838,0.138169,0.099123,9.768531,0.005488,0.003306,-0.003197,-0.135748,-0.578750,-1.190407,100306.0000
1764076102395620125,2025-11-25 18:38:22.392,0.619763,1.035221,211.227692,0.014334,0.010939,0.978373,0.155973,0.142103,9.802368,0.004753,0.001061,-0.008076,-0.134320,-0.582555,-1.189888,100303.0000
1764076102495315569,2025-11-25 18:38:22.493,0.626963,1.019835,211.254425,0.013815,0.011380,0.977848,0.113871,0.094725,9.736773,0.002727,0.002660,-0.000182,-0.133845,-0.581628,-1.191354,100300.0000
1764076102595676958,2025-11-25 18:38:22.593,0.628740,1.012561,211.279221,0.012772,0.011826,0.978036,0.139683,0.126243,9.823347,-0.000315,0.001598,-0.006534,-0.131882,-0.577747,-1.189034,100304.0000
1764076102695850717,2025-11-25 18:38:22.693,0.619279,1.015788,211.307327,0.012618,0.010651,0.977948,0.101962,0.082496,9.766211,0.000826,-0.000630,0.002555,-0.133841,-0.579260,-1.192353,100302.0000
1764076102795718013,2025-11-25 18:38:22.793,0.603715,1.028536,211.330353,0.012847,0.010793,0.978330,0.143497,0.119615,9.807998,0.002031,-0.005129,-0.002510,-0.131907,-0.581111,-1.189946,100302.0000
1764076102896261161,2025-11-25 18:38:22.893,0.593012,1.049611,211.351181,0.013518,0.009610,0.978648,0.127570,0.080304,9.756827,-0.003985,-0.003404,0.000957,-0.131893,-0.579190,-1.189494,100306.0000
1764076102995577346,2025-11-25 18:38:22.993,0.588039,1.068311,211.371277,0.014786,0.009471,0.978937,0.165881,0.091565,9.810737,0.007796,-0.000519,-0.008299,-0.132856,-0.577782,-1.190464,100302.0000
1764076103095997143,2025-11-25 18:38:23.093,0.592032,1.074584,211.392746,0.015556,0.009185,0.978733,0.128231,0.086046,9.751801,0.002986,-0.001482,0.003597,-0.132387,-0.580168,-1.190435,100302.0000
1764076103195686569,2025-11-25 18:38:23.192,0.603027,1.063012,211.417328,0.015666,0.009491,0.978719,0.179224,0.087183,9.809505,0.003566,0.000023,-0.006310,-0.134324,-0.581152,-1.191355,100302.0000
1764076103296393383,2025-11-25 18:38:23.293,0.621391,1.043413,211.442719,0.014858,0.010100,0.978330,0.119338,0.109893,9.761117,0.003835,0.003082,-0.006754,-0.131441,-0.581150,-1.191879,100301.0000
1764076103395935550,2025-11-25 18:38:23.393,0.635754,1.022344,211.465866,0.013615,0.011035,0.978446,0.144751,0.100124,9.812336,0.005010,-0.000466,-0.006999,-0.129982,-0.581102,-1.189974,100309.0000
1764076103496316846,2025-11-25 18:38:23.493,0.636834,1.012312,211.483414,0.012884,0.011232,0.978113,0.110956,0.119497,9.752045,-0.002686,0.002877,-0.001607,-0.132865,-0.581105,-1.189450,100298.0000
1764076103595657124,2025-11-25 18:38:23.593,0.623555,1.014332,211.506500,0.013054,0.011710,0.978227,0.153184,0.132543,9.821512,-0.000189,-0.001379,-0.007103,-0.131911,-0.579709,-1.191412,100304.0000
1764076103696233531,2025-11-25 18:38:23.693,0.611451,1.022997,211.525681,0.013116,0.010690,0.978133,0.123136,0.096680,9.755420,-0.006796,-0.003255,0.001360,-0.130969,-0.582113,-1.192352,100302.0000
1764076103796070976,2025-11-25 18:38:23.793,0.599694,1.040801,211.551437,0.013502,0.010160,0.978638,0.159913,0.120604,9.810387,0.002925,-0.004038,-0.006531,-0.130946,-0.580639,-1.190449,100301.0000
1764076103895628994,2025-11-25 18:38:23.893,0.597784,1.057039,211.573944,0.014142,0.009288,0.978531,0.120905,0.078734,9.756106,-0.002110,-0.003767,0.000624,-0.130969,-0.582113,-1.192352,100298.0000
1764076103995521309,2025-11-25 18:38:23.992,0.604314,1.070299,211.599136,0.014834,0.009234,0.979052,0.165305,0.109750,9.798136,0.007658,-0.002638,-0.007045,-0.131449,-0.579757,-1.193826,100310.0000
1764076104095753512,2025-11-25 18:38:24.093,0.615139,1.072918,211.616592,0.015416,0.009795,0.978556,0.149970,0.103342,9.762188,0.004222,0.000263,0.000466,-0.130483,-0.581156,-1.192374,100300.0000
1764076104196441420,2025-11-25 18:38:24.193,0.628232,1.061875,211.632523,0.015479,0.011148,0.978314,0.169976,0.126511,9.820789,0.002611,0.002309,-0.007868,-0.127098,-0.581567,-1.190010,100309.0000
1764076104296939031,2025-11-25 18:38:24.293,0.629090,1.043949,211.651047,0.014428,0.011519,0.978300,0.120356,0.097269,9.761652,-0.001804,0.003381,0.001148,-0.130982,-0.584034,-1.192804,100308.0000
1764076104395810938,2025-11-25 18:38:24.393,0.616233,1.020394,211.672195,0.013777,0.011156,0.978266,0.158178,0.111270,9.802772,0.005581,0.000608,-0.004561,-0.127597,-0.580675,-1.192905,100304.0000
1764076104495772605,2025-11-25 18:38:24.493,0.604973,1.005811,211.691010,0.012542,0.009553,0.977731,0.098255,0.074819,9.755778,-0.003910,0.001180,0.002369,-0.129033,-0.580661,-1.191921,100304.0000
1764076104596185068,2025-11-25 18:38:24.593,0.606483,1.004942,211.714859,0.011986,0.009521,0.977971,0.121732,0.102661,9.806569,0.000580,-0.002175,-0.007459,-0.127596,-0.583501,-1.190936,100300.0000
1764076104695970957,2025-11-25 18:38:24.693,0.620181,1.018524,211.737381,0.012695,0.009139,0.978231,0.107247,0.098700,9.742515,-0.000610,-0.004087,0.001500,-0.125675,-0.583502,-1.191446,100308.0000
1764076104796178382,2025-11-25 18:38:24.793,0.627949,1.049658,211.760864,0.013181,0.011121,0.978909,0.154799,0.128771,9.824256,0.001658,-0.007313,-0.008308,-0.128079,-0.583035,-1.191418,100301.0000
1764076104895394938,2025-11-25 18:38:24.893,0.626769,1.074148,211.782791,0.014414,0.011470,0.979097,0.148936,0.110777,9.764234,-0.003028,-0.004491,0.000363,-0.129031,-0.582541,-1.190448,100304.0000
1764076104996091808,2025-11-25 18:38:24.993,0.618706,1.086909,211.802383,0.015775,0.011391,0.978924,0.180248,0.124321,9.829627,0.001538,-0.001546,-0.004920,-0.127609,-0.584476,-1.191884,100306.0000
1764076105095866642,2025-11-25 18:38:25.093,0.607420,1.077789,211.825745,0.015914,0.010004,0.978337,0.145206,0.083792,9.748902,-0.002330,-0.001153,-0.001153,-0.128079,-0.583035,-1.191418,100303.0000
1764076105195729308,2025-11-25 18:38:25.193,0.601693,1.050311,211.852966,0.015318,0.009506,0.978311,0.167832,0.112781,9.809230,0.002166,0.005700,-0.005620,-0.127582,-0.580635,-1.190980,100304.0000
1764076105295910271,2025-11-25 18:38:25.293,0.607546,1.017876,211.875015,0.014213,0.009026,0.978061,0.130744,0.094681,9.759583,0.008641,0.004922,0.000723,-0.124714,-0.582085,-1.192444,100308.0000
1764076105396032327,2025-11-25 18:38:25.393,0.618557,0.995266,211.898605,0.012910,0.009991,0.977998,0.140053,0.112528,9.815583,-0.003106,0.003012,-0.008748,-0.125197,-0.583978,-1.191446,100308.0000
1764076105495999345,2025-11-25 18:38:25.493,0.632720,0.986744,211.914154,0.012177,0.010154,0.978167,0.118975,0.108490,9.764274,0.003791,0.001016,0.002025,-0.126162,-0.583047,-1.192409,100301.0000
1764076105596000660,2025-11-25 18:38:25.593,0.637858,0.996667,211.932831,0.011558,0.011102,0.978516,0.131558,0.109540,9.818995,0.001814,-0.003911,-0.008355,-0.125186,-0.583480,-1.190490,100305.0000
1764076105696299067,2025-11-25 18:38:25.693,0.634801,1.022745,211.956024,0.012096,0.011116,0.978502,0.130285,0.091487,9.762660,0.001678,-0.008901,0.003862,-0.126167,-0.584948,-1.191898,100300.0000
1764076105795779123,2025-11-25 18:38:25.793,0.631224,1.057641,211.980316,0.013354,0.011139,0.978692,0.180385,0.114284,9.821172,-0.003321,-0.006105,-0.009162,-0.124246,-0.584004,-1.192904,100306.0000
1764076105895856752,2025-11-25 18:38:25.893,0.625550,1.086422,212.004486,0.015197,0.010208,0.978471,0.165121,0.091405,9.747985,0.000788,-0.004246,-0.003343,-0.125657,-0.582039,-1.190024,100303.0000
1764076105996515474,2025-11-25 18:38:25.993,0.621225,1.100079,212.028610,0.016269,0.010249,0.978558,0.176023,0.113873,9.819336,0.002256,-0.003931,-0.006730,-0.123752,-0.584439,-1.190978,100306.0000
1764076106096013122,2025-11-25 18:38:26.093,0.615370,1.087095,212.047180,0.016548,0.010022,0.978621,0.136390,0.107310,9.752718,-0.006223,0.004999,-0.000851,-0.122300,-0.583467,-1.190533,100305.0000
1764076106195771456,2025-11-25 18:38:26.193,0.614383,1.061503,212.071548,0.015665,0.009604,0.978287,0.176940,0.106772,9.815301,0.003824,0.005905,-0.004192,-0.125668,-0.583482,-1.190483,100311.0000
1764076106295663511,2025-11-25 18:38:26.293,0.617101,1.027142,212.088196,0.014373,0.009817,0.978210,0.105360,0.096670,9.763192,-0.002575,0.004161,0.002065,-0.121347,-0.583960,-1.191503,100311.0000
1764076106395354141,2025-11-25 18:38:26.393,0.616334,0.998950,212.108612,0.013155,0.009985,0.978458,0.151350,0.104434,9.812035,0.002148,0.003676,-0.006673,-0.123291,-0.584020,-1.193881,100303.0000
1764076106495797455,2025-11-25 18:38:26.493,0.617954,0.988561,212.131836,0.012207,0.010240,0.978230,0.085069,0.108288,9.757231,0.001676,-0.000893,0.000418,-0.124247,-0.584949,-1.192408,100302.0000
1764076106595937048,2025-11-25 18:38:26.593,0.624558,0.996142,212.156143,0.012388,0.010672,0.978418,0.144695,0.096333,9.818253,0.012537,-0.003811,-0.008564,-0.123283,-0.585412,-1.191933,100296.0000
1764076106695884381,2025-11-25 18:38:26.693,0.629844,1.010479,212.177689,0.012934,0.010464,0.978119,0.107558,0.106396,9.753724,0.001133,-0.001696,0.000123,-0.121354,-0.584448,-1.191977,100308.0000
1764076106796135474,2025-11-25 18:38:26.793,0.633923,1.025721,212.197571,0.013575,0.010301,0.978206,0.157654,0.075213,9.818110,0.006350,-0.004299,-0.008416,-0.121849,-0.584959,-1.193406,100304.0000
1764076106896483270,2025-11-25 18:38:26.893,0.634926,1.038574,212.216949,0.013826,0.010338,0.978141,0.122481,0.134588,9.747717,0.001625,0.000128,-0.000347,-0.121820,-0.585355,-1.189548,100306.0000
1764076106996520214,2025-11-25 18:38:26.993,0.635307,1.051235,212.235886,0.013879,0.010826,0.978316,0.150758,0.117260,9.820887,-0.001381,-0.002570,-0.012009,-0.121842,-0.585883,-1.191947,100304.0000
1764076107095787140,2025-11-25 18:38:27.093,0.633589,1.063254,212.256592,0.014645,0.011015,0.978739,0.117805,0.131872,9.768377,-0.001033,-0.000423,0.001947,-0.120857,-0.584405,-1.190058,100307.0000
1764076107196617640,2025-11-25 18:38:27.193,0.624003,1.068471,212.288040,0.015463,0.011275,0.979000,0.190509,0.096001,9.819139,0.005029,-0.004492,-0.009175,-0.121368,-0.585901,-1.192917,100306.0000
1764076107296028140,2025-11-25 18:38:27.293,0.614112,1.055588,212.317093,0.015887,0.010387,0.978962,0.144334,0.142213,9.755845,-0.002089,0.002469,0.000507,-0.120391,-0.584444,-1.191991,100310.0000
1764076107395722936,2025-11-25 18:38:27.393,0.611441,1.026715,212.344772,0.015428,0.009626,0.978678,0.162808,0.087371,9.817320,0.001232,0.007320,-0.004034,-0.121842,-0.585883,-1.191947,100302.0000
1764076107496233251,2025-11-25 18:38:27.493,0.612733,0.990265,212.358978,0.013493,0.009329,0.977910,0.088218,0.138363,9.752213,-0.000916,0.006496,-0.000075,-0.120398,-0.585877,-1.191969,100308.0000
1764076107595920140,2025-11-25 18:38:27.593,0.624953,0.971556,212.378616,0.011858,0.009457,0.978004,0.124012,0.072501,9.805552,0.006867,0.001236,-0.006916,-0.120865,-0.584426,-1.191021,100305.0000
1764076107695707733,2025-11-25 18:38:27.693,0.630553,0.977697,212.395844,0.010711,0.010529,0.977974,0.076463,0.139314,9.758996,0.003658,-0.007058,-0.001052,-0.120402,-0.585887,-1.192450,100302.0000
1764076107795968344,2025-11-25 18:38:27.793,0.638395,1.006694,212.419922,0.011893,0.010954,0.978615,0.175575,0.081825,9.812985,0.005110,-0.008157,-0.008018,-0.120387,-0.584434,-1.191510,100308.0000
1764076107895738121,2025-11-25 18:38:27.893,0.639229,1.042029,212.447647,0.014389,0.011210,0.978672,0.130052,0.135378,9.766177,0.000241,-0.004730,-0.002626,-0.118476,-0.583988,-1.193471,100302.0000
1764076107995959621,2025-11-25 18:38:27.993,0.639510,1.067600,212.475510,0.015833,0.011032,0.979185,0.193420,0.065839,9.802523,-0.000846,-0.002427,-0.007119,-0.120893,-0.586387,-1.193398,100302.0000
1764076108095978251,2025-11-25 18:38:28.093,0.634138,1.066208,212.502136,0.016262,0.010425,0.978494,0.124960,0.148986,9.765487,0.003486,-0.001100,0.001801,-0.119431,-0.586330,-1.191013,100303.0000
1764076108196321862,2025-11-25 18:38:28.193,0.627877,1.049981,212.524841,0.014998,0.009549,0.978084,0.185638,0.036822,9.793672,-0.001127,0.005961,-0.005625,-0.118004,-0.587309,-1.192464,100304.0000
1764076108296174288,2025-11-25 18:38:28.293,0.630064,1.027694,212.542221,0.013821,0.009456,0.977640,0.100596,0.155983,9.751379,0.002797,0.004550,0.004100,-0.117998,-0.589179,-1.190509,100304.0000
1764076108395769621,2025-11-25 18:38:28.393,0.633825,1.011033,212.566910,0.013069,0.009731,0.978087,0.163891,0.057589,9.810870,0.000318,-0.000997,-0.005063,-0.118469,-0.586326,-1.191027,100307.0000
1764076108496132751,2025-11-25 18:38:28.493,0.636573,1.008308,212.593002,0.012441,0.010788,0.978196,0.088611,0.166607,9.764618,0.008000,-0.003404,-0.000548,-0.115133,-0.588282,-1.193936,100305.0000
1764076108595900047,2025-11-25 18:38:28.593,0.641134,1.020930,212.624054,0.012846,0.010819,0.978832,0.161735,0.026702,9.808778,-0.001548,-0.001268,-0.007788,-0.116062,-0.587727,-1.190078,100304.0000
1764076108696061325,2025-11-25 18:38:28.693,0.640474,1.034136,212.653976,0.013691,0.010706,0.979059,0.109596,0.165011,9.775191,-0.000801,-0.001937,0.002586,-0.117033,-0.586340,-1.192011,100309.0000
1764076108796117102,2025-11-25 18:38:28.793,0.643893,1.042870,212.674225,0.014838,0.010062,0.978790,0.192087,0.011719,9.806411,-0.004099,-0.002960,-0.005192,-0.115106,-0.585853,-1.192047,100305.0000
1764076108895357584,2025-11-25 18:38:28.893,0.645275,1.035280,212.696091,0.015134,0.010152,0.978206,0.096088,0.185606,9.751924,0.000318,-0.003284,0.002291,-0.115592,-0.589169,-1.190545,100305.0000
1764076108995826528,2025-11-25 18:38:28.993,0.646906,1.019230,212.721069,0.015476,0.010235,0.977846,0.182376,0.032934,9.803015,0.004797,0.001645,-0.003802,-0.118475,-0.586813,-1.191501,100297.0000
1764076109095554972,2025-11-25 18:38:29.093,0.648800,0.998270,212.749146,0.014595,0.010565,0.977522,0.103452,0.188933,9.751578,0.000170,0.001712,-0.000391,-0.115607,-0.589209,-1.192470,100305.0000
1764076109196282176,2025-11-25 18:38:29.193,0.649970,0.984524,212.775879,0.013570,0.010088,0.978461,0.158275,0.030931,9.811810,-0.000537,0.000396,-0.011370,-0.117522,-0.587307,-1.192471,100299.0000
1764076109296285491,2025-11-25 18:38:29.293,0.644059,0.980948,212.802002,0.012449,0.010105,0.978901,0.094506,0.180190,9.773164,-0.004219,-0.004774,-0.001872,-0.114166,-0.587323,-1.193965,100306.0000
1764076109396330657,2025-11-25 18:38:29.393,0.641825,0.990754,212.828552,0.012338,0.009872,0.979634,0.154941,0.019496,9.829833,0.005810,-0.005921,-0.004909,-0.115605,-0.588732,-1.192477,100306.0000
1764076109496178213,2025-11-25 18:38:29.493,0.644306,1.009216,212.855743,0.013019,0.010113,0.979064,0.108635,0.195460,9.765023,0.000587,-0.006283,-0.002134,-0.115111,-0.589166,-1.190552,100298.0000
1764076109595817194,2025-11-25 18:38:29.593,0.651633,1.028570,212.871185,0.014455,0.009897,0.978605,0.181116,0.017666,9.797600,0.003414,0.001256,-0.002752,-0.114631,-0.586339,-1.192528,100303.0000
1764076109695960380,2025-11-25 18:38:29.693,0.655019,1.041221,212.896835,0.015126,0.010603,0.977697,0.120705,0.190898,9.742614,0.000084,-0.002670,-0.001034,-0.113656,-0.587717,-1.190113,100308.0000
1764076109796267250,2025-11-25 18:38:29.793,0.656024,1.037258,212.930298,0.015610,0.010258,0.977884,0.168854,0.034079,9.795453,0.003820,-0.001106,-0.003456,-0.117511,-0.587276,-1.191027,100306.0000
1764076109896048898,2025-11-25 18:38:29.893,0.658180,1.021390,212.954437,0.014737,0.010431,0.977486,0.102715,0.178834,9.750905,0.001361,0.003591,-0.004619,-0.112711,-0.589643,-1.191061,100300.0000
1764076109995603398,2025-11-25 18:38:29.993,0.659880,1.001827,212.982361,0.014360,0.010218,0.978104,0.191105,0.028830,9.799544,0.002431,0.002932,-0.007990,-0.113629,-0.585287,-1.188225,100305.0000
1764076110095679157,2025-11-25 18:38:30.093,0.660483,0.985899,213.006912,0.014065,0.010606,0.978623,0.118084,0.189574,9.780469,-0.004426,0.005049,-0.004497,-0.112706,-0.590101,-1.190091,100300.0000
1764076110195940657,2025-11-25 18:38:30.193,0.657352,0.968150,213.035492,0.013803,0.010015,0.978903,0.138669,0.019354,9.809419,-0.002302,0.002971,-0.004517,-0.113197,-0.586830,-1.193505,100316.0000
1764076110296175787,2025-11-25 18:38:30.293,0.662813,0.957374,213.063339,0.013223,0.010635,0.979063,0.127219,0.186508,9.779428,0.000094,-0.001698,-0.000434,-0.113179,-0.590082,-1.189121,100305.0000
1764076110395638249,2025-11-25 18:38:30.393,0.666586,0.958517,213.090286,0.012422,0.010268,0.979159,0.155162,0.016702,9.806318,0.001723,-0.001245,-0.003317,-0.112710,-0.588698,-1.191557,100307.0000
1764076110495582898,2025-11-25 18:38:30.493,0.668703,0.975988,213.115448,0.012041,0.010738,0.978550,0.098119,0.198861,9.774323,-0.002573,-0.007389,-0.000965,-0.112207,-0.588167,-1.189165,100311.0000
1764076110596342990,2025-11-25 18:38:30.593,0.667827,1.006175,213.145523,0.013136,0.010138,0.978184,0.161025,0.016555,9.799660,0.004560,-0.008116,-0.001614,-0.110306,-0.588220,-1.192082,100309.0000
1764076110696214175,2025-11-25 18:38:30.693,0.669093,1.035683,213.173874,0.014806,0.010474,0.977850,0.116926,0.194553,9.753672,0.000579,-0.003633,-0.003843,-0.112707,-0.587275,-1.192061,100301.0000
1764076110795706490,2025-11-25 18:38:30.793,0.667141,1.045701,213.199600,0.016392,0.010245,0.978122,0.191814,0.017194,9.796474,0.000953,-0.001257,-0.001501,-0.111733,-0.584883,-1.192111,100302.0000
1764076110895353657,2025-11-25 18:38:30.892,0.663901,1.026806,213.229340,0.016813,0.010590,0.978305,0.133995,0.192788,9.767271,-0.004591,0.002539,-0.001870,-0.111737,-0.588663,-1.190127,100306.0000
1764076110996573508,2025-11-25 18:38:30.993,0.662595,0.986406,213.258896,0.015877,0.009701,0.978654,0.179423,-0.008301,9.813376,0.003891,0.009919,-0.003191,-0.111749,-0.589639,-1.191076,100306.0000
1764076111095716527,2025-11-25 18:38:31.093,0.668905,0.939524,213.287399,0.013843,0.009866,0.978222,0.080168,0.176382,9.766660,0.001807,0.006195,-0.002961,-0.111764,-0.588735,-1.193497,100302.0000
1764076111195943360,2025-11-25 18:38:31.193,0.683929,0.912236,213.314316,0.011969,0.009608,0.977963,0.142023,0.017757,9.791085,0.007893,0.000782,-0.003400,-0.109845,-0.590626,-1.193015,100306.0000
1764076111296201564,2025-11-25 18:38:31.292,0.696967,0.913307,213.344025,0.010543,0.010617,0.978315,0.072043,0.208459,9.778724,0.000013,-0.005405,-0.005602,-0.110318,-0.590608,-1.192045,100300.0000
1764076111395931008,2025-11-25 18:38:31.393,0.700968,0.944003,213.372528,0.011545,0.011005,0.978438,0.156156,0.011974,9.802217,0.000818,-0.005285,-0.006071,-0.108867,-0.590581,-1.191104,100308.0000
1764076111495783249,2025-11-25 18:38:31.493,0.691551,0.985099,213.397095,0.013016,0.012104,0.978423,0.115162,0.205979,9.773553,0.004557,-0.013977,-0.001679,-0.106935,-0.590552,-1.190169,100305.0000
1764076111595636064,2025-11-25 18:38:31.593,0.678559,1.022854,213.422592,0.015445,0.011170,0.978591,0.197513,0.013215,9.796946,-0.004317,-0.006208,-0.005250,-0.109809,-0.589589,-1.189178,100304.0000
1764076111695668786,2025-11-25 18:38:31.693,0.662758,1.034075,213.451691,0.017037,0.010246,0.978406,0.157059,0.184464,9.772326,-0.000993,0.002478,-0.003196,-0.107890,-0.587711,-1.191162,100299.0000
1764076111796685897,2025-11-25 18:38:31.793,0.656911,1.011513,213.486664,0.017466,0.008619,0.978675,0.199061,0.014207,9.799007,-0.001042,0.006250,-0.008589,-0.108383,-0.590101,-1.191118,100304.0000
1764076111895684286,2025-11-25 18:38:31.892,0.663712,0.968521,213.521500,0.015972,0.008739,0.978378,0.095713,0.161616,9.752583,0.003557,0.009917,-0.005571,-0.109343,-0.591041,-1.190126,100298.0000
1764076111996887286,2025-11-25 18:38:31.993,0.682348,0.918503,213.548706,0.013339,0.009391,0.978464,0.134175,0.027297,9.796616,0.006057,0.005113,-0.003784,-0.106469,-0.590591,-1.192102,100309.0000
1764076112095996748,2025-11-25 18:38:32.093,0.702876,0.893397,213.571213,0.011123,0.010848,0.978345,0.075854,0.193318,9.770391,0.002969,-0.001149,0.000181,-0.106481,-0.591566,-1.193050,100308.0000
1764076112196341637,2025-11-25 18:38:32.193,0.706377,0.895784,213.590881,0.010796,0.011591,0.978547,0.123740,0.037453,9.803570,0.000599,-0.003901,-0.007986,-0.107898,-0.589144,-1.191140,100307.0000
1764076112295800822,2025-11-25 18:38:32.293,0.700569,0.925391,213.615524,0.011606,0.011994,0.978078,0.103131,0.221964,9.759901,-0.002616,-0.006746,-0.001108,-0.106464,-0.591993,-1.190636,100306.0000
1764076112395727322,2025-11-25 18:38:32.392,0.689921,0.965271,213.647339,0.013665,0.010577,0.978622,0.194473,0.019928,9.796362,-0.001313,-0.005636,-0.005016,-0.106487,-0.591109,-1.194020,100302.0000
1764076112495729952,2025-11-25 18:38:32.493,0.684319,0.995690,213.675491,0.014967,0.009865,0.978477,0.121135,0.166507,9.765220,-0.001491,-0.006543,-0.000047,-0.106961,-0.592036,-1.192554,100302.0000
1764076112595556859,2025-11-25 18:38:32.593,0.685047,1.009370,213.704056,0.016412,0.009497,0.978854,0.198950,0.023311,9.809431,-0.001315,-0.004172,-0.005615,-0.105997,-0.592500,-1.192080,100300.0000
1764076112696064137,2025-11-25 18:38:32.692,0.685190,0.999016,213.734329,0.016412,0.010171,0.978729,0.120627,0.184514,9.784016,0.001569,0.002095,0.000179,-0.106947,-0.591528,-1.191117,100310.0000
1764076112795765100,2025-11-25 18:38:32.793,0.691315,0.974149,213.765213,0.016094,0.010402,0.979032,0.198191,0.022454,9.800159,-0.000497,0.008533,-0.008262,-0.107907,-0.589642,-1.192095,100302.0000
1764076112895516322,2025-11-25 18:38:32.893,0.695911,0.939546,213.790512,0.014782,0.010569,0.978727,0.103252,0.210572,9.768088,0.001971,0.006781,-0.002382,-0.104546,-0.592473,-1.191139,100304.0000
1764076112995374081,2025-11-25 18:38:32.993,0.697022,0.904915,213.818298,0.013511,0.010362,0.978769,0.143707,0.005984,9.809294,-0.003760,0.005633,-0.005595,-0.104533,-0.590552,-1.190686,100309.0000
1764076113095895989,2025-11-25 18:38:33.093,0.700366,0.884058,213.847458,0.012536,0.010158,0.978080,0.065847,0.176207,9.767216,0.005759,0.001932,-0.000138,-0.105515,-0.591552,-1.192583,100302.0000
1764076113195971581,2025-11-25 18:38:33.193,0.706014,0.881285,213.875473,0.012071,0.009939,0.977851,0.158433,0.022425,9.774751,0.002114,-0.000312,-0.003369,-0.102145,-0.593417,-1.191159,100301.0000
1764076113295984692,2025-11-25 18:38:33.293,0.714617,0.899815,213.902969,0.012024,0.010486,0.977518,0.108987,0.192124,9.763940,0.006735,-0.005906,-0.002037,-0.103593,-0.592021,-1.192604,100302.0000
1764076113396860192,2025-11-25 18:38:33.393,0.718156,0.926182,213.924530,0.012891,0.010609,0.977735,0.152840,0.023574,9.779016,0.000732,-0.004195,-0.005085,-0.105017,-0.591977,-1.190176,100306.0000
1764076113495976507,2025-11-25 18:38:33.493,0.711541,0.956065,213.946411,0.014232,0.011086,0.978200,0.121828,0.222742,9.778686,0.002074,-0.003448,-0.000659,-0.102634,-0.593440,-1.192115,100306.0000
1764076113595842248,2025-11-25 18:38:33.593,0.702166,0.974176,213.971008,0.015555,0.010529,0.979016,0.167604,0.001530,9.807166,-0.002212,-0.002203,-0.005063,-0.103623,-0.594928,-1.194486,100306.0000
1764076113696196285,2025-11-25 18:38:33.693,0.696386,0.975964,213.997879,0.016139,0.010410,0.979757,0.133526,0.177840,9.794121,0.002034,-0.001232,-0.003114,-0.102141,-0.591049,-1.192158,100309.0000
1764076113795930266,2025-11-25 18:38:33.793,0.692209,0.963782,214.026459,0.016361,0.009518,0.979312,0.187505,-0.000560,9.779593,-0.000603,0.001619,-0.002909,-0.103115,-0.593442,-1.192108,100304.0000
1764076113895314321,2025-11-25 18:38:33.893,0.693072,0.938276,214.054459,0.015402,0.009680,0.978803,0.131656,0.171175,9.788394,0.005518,0.002836,-0.004095,-0.103106,-0.593889,-1.190656,100306.0000
1764076113995814377,2025-11-25 18:38:33.992,0.701629,0.906189,214.081985,0.014164,0.009818,0.977773,0.154072,0.007800,9.767811,0.003219,0.007311,-0.002695,-0.103597,-0.594389,-1.191605,100306.0000
1764076114095670192,2025-11-25 18:38:34.093,0.713455,0.886825,214.100662,0.012465,0.010576,0.977529,0.109383,0.189850,9.787609,0.002415,-0.003689,-0.003760,-0.101171,-0.591024,-1.191210,100302.0000
1764076114196091692,2025-11-25 18:38:34.193,0.716251,0.881866,214.121109,0.012244,0.010905,0.977512,0.127532,0.010978,9.767119,0.001135,0.000731,-0.003032,-0.102634,-0.593440,-1.192115,100309.0000
1764076114295916636,2025-11-25 18:38:34.293,0.712306,0.894423,214.149216,0.012639,0.010831,0.978147,0.110568,0.186820,9.787665,-0.000623,-0.006367,-0.004337,-0.101644,-0.592419,-1.189255,100300.0000
1764076114395331525,2025-11-25 18:38:34.393,0.710743,0.914073,214.177414,0.013597,0.009804,0.978395,0.138770,0.012139,9.763929,0.005170,-0.006058,-0.001758,-0.100216,-0.592453,-1.191202,100307.0000
1764076114495996766,2025-11-25 18:38:34.493,0.716724,0.931893,214.212982,0.013910,0.009772,0.979082,0.131317,0.171637,9.819167,-0.002491,-0.002879,-0.006701,-0.099769,-0.593955,-1.194557,100301.0000
1764076114596803469,2025-11-25 18:38:34.593,0.726272,0.949842,214.239624,0.014675,0.009629,0.978806,0.143499,0.029858,9.771865,-0.000126,-0.002526,0.000736,-0.100240,-0.593459,-1.193594,100306.0000
1764076114695801877,2025-11-25 18:38:34.693,0.731700,0.957479,214.260101,0.015152,0.010936,0.978839,0.156500,0.156728,9.809653,-0.000536,-0.002866,-0.005367,-0.104084,-0.593934,-1.192568,100304.0000
1764076114795681376,2025-11-25 18:38:34.793,0.734821,0.955161,214.279922,0.015733,0.011198,0.978777,0.148020,0.046258,9.772162,0.005139,0.001747,0.002405,-0.102639,-0.594395,-1.192100,100306.0000
1764076114895601191,2025-11-25 18:38:34.892,0.722837,0.938254,214.304886,0.015644,0.011285,0.978786,0.155733,0.167967,9.804811,-0.005075,-0.001125,-0.007792,-0.100718,-0.594397,-1.192610,100302.0000
1764076114996692524,2025-11-25 18:38:34.993,0.710225,0.911320,214.342575,0.015648,0.010076,0.978415,0.124443,0.056080,9.753642,0.001556,0.004953,0.000478,-0.103592,-0.592489,-1.192116,100296.0000
1764076115095611154,2025-11-25 18:38:35.092,0.703732,0.882198,214.380783,0.014111,0.009303,0.978465,0.132733,0.137729,9.809561,-0.003088,0.003805,-0.007320,-0.100236,-0.593449,-1.193113,100303.0000
1764076115195282858,2025-11-25 18:38:35.192,0.708887,0.856143,214.422104,0.012542,0.008658,0.978087,0.093116,0.064559,9.742597,0.004585,0.000452,-0.001667,-0.098788,-0.594845,-1.191669,100302.0000
1764076115295724987,2025-11-25 18:38:35.293,0.722632,0.852921,214.451324,0.011327,0.009716,0.978176,0.153356,0.124286,9.818881,0.001306,-0.004143,-0.007064,-0.098310,-0.593908,-1.192653,100304.0000
1764076115396311246,2025-11-25 18:38:35.393,0.744400,0.878092,214.477814,0.012025,0.010226,0.978429,0.123039,0.077252,9.773828,0.007780,-0.006512,0.002530,-0.098768,-0.592437,-1.190743,100303.0000
1764076115495925358,2025-11-25 18:38:35.493,0.754073,0.907956,214.500748,0.013399,0.011410,0.978512,0.159171,0.151379,9.818858,-0.002530,-0.005052,-0.006648,-0.097831,-0.592026,-1.194134,100304.0000
1764076115595806265,2025-11-25 18:38:35.593,0.753569,0.934408,214.528275,0.015144,0.011786,0.978385,0.140964,0.110496,9.764026,0.000265,-0.006105,-0.000495,-0.099749,-0.595317,-1.191165,100303.0000
1764076115696248006,2025-11-25 18:38:35.693,0.740226,0.944348,214.569504,0.015955,0.011928,0.978877,0.198559,0.136756,9.814891,0.000519,-0.005566,-0.008044,-0.099268,-0.593902,-1.192157,100308.0000
1764076115796141950,2025-11-25 18:38:35.793,0.730285,0.937408,214.609344,0.016092,0.010401,0.978898,0.144513,0.107590,9.756860,-0.005843,-0.000160,-0.001948,-0.096866,-0.595314,-1.191690,100300.0000
1764076115896169135,2025-11-25 18:38:35.893,0.716557,0.917029,214.651962,0.015192,0.009648,0.978791,0.164029,0.081795,9.810617,0.000446,0.000148,-0.008819,-0.096858,-0.595294,-1.190727,100294.0000
1764076115995950228,2025-11-25 18:38:35.993,0.715467,0.891004,214.681335,0.014455,0.008814,0.978536,0.118992,0.087734,9.755831,0.000474,0.004298,-0.000878,-0.096864,-0.593424,-1.192681,100299.0000
1764076116095838950,2025-11-25 18:38:36.093,0.727238,0.864596,214.712692,0.013568,0.009001,0.978593,0.161391,0.112088,9.814520,0.001509,0.004188,-0.006734,-0.095422,-0.595308,-1.191711,100308.0000
1764076116196707265,2025-11-25 18:38:36.193,0.743546,0.848292,214.748245,0.012570,0.009856,0.978050,0.114491,0.095743,9.744617,-0.000829,0.002608,-0.001185,-0.096857,-0.595761,-1.190238,100300.0000
1764076116295973431,2025-11-25 18:38:36.293,0.759192,0.854023,214.787338,0.012437,0.010743,0.978006,0.145655,0.137504,9.823153,0.002911,-0.001831,-0.009443,-0.093515,-0.595818,-1.193658,100306.0000
1764076116396098190,2025-11-25 18:38:36.393,0.768405,0.866069,214.830185,0.012436,0.010618,0.977777,0.119526,0.127226,9.758554,0.000432,0.000618,-0.003896,-0.093970,-0.596694,-1.189785,100301.0000
1764076116495848375,2025-11-25 18:38:36.493,0.776546,0.885436,214.875305,0.013407,0.011138,0.978482,0.153636,0.091148,9.810563,0.004527,-0.003833,-0.009284,-0.094475,-0.595344,-1.193651,100304.0000
1764076116595646487,2025-11-25 18:38:36.593,0.776224,0.900858,214.918564,0.014391,0.011193,0.978641,0.123287,0.112627,9.745911,-0.004142,-0.003362,-0.000040,-0.094458,-0.593413,-1.192717,100305.0000
1764076116695910209,2025-11-25 18:38:36.693,0.769065,0.911183,214.956757,0.015285,0.011584,0.978863,0.193000,0.109440,9.823291,0.000281,-0.002563,-0.007104,-0.095888,-0.597627,-1.188298,100305.0000
1764076116795684523,2025-11-25 18:38:36.793,0.757893,0.910057,215.000671,0.015074,0.010361,0.978656,0.126900,0.105011,9.771157,-0.004159,-0.001237,0.001930,-0.093489,-0.594334,-1.191273,100304.0000
1764076116896302134,2025-11-25 18:38:36.893,0.742414,0.894354,215.046814,0.014546,0.010156,0.978614,0.165514,0.082129,9.820774,-0.001309,0.004369,-0.013130,-0.092557,-0.597236,-1.193169,100298.0000
1764076116995630190,2025-11-25 18:38:36.993,0.737502,0.878782,215.095871,0.014110,0.009100,0.978277,0.127505,0.116260,9.755684,-0.000281,0.001309,-0.003166,-0.091570,-0.596226,-1.190791,100304.0000
1764076117096202190,2025-11-25 18:38:37.093,0.743461,0.864606,215.148575,0.013395,0.009295,0.978607,0.138056,0.070364,9.807534,0.005199,-0.001012,-0.011266,-0.093514,-0.598643,-1.191688,100300.0000
1764076117195991968,2025-11-25 18:38:37.193,0.754984,0.859856,215.195999,0.013228,0.009344,0.978445,0.103032,0.130807,9.756625,0.001583,0.004576,-0.002694,-0.091122,-0.598195,-1.193656,100308.0000
1764076117296468560,2025-11-25 18:38:37.293,0.771737,0.853199,215.249954,0.013335,0.010270,0.978617,0.154872,0.084778,9.813277,0.004531,-0.003051,-0.010968,-0.091099,-0.596721,-1.191753,100300.0000
1764076117396166912,2025-11-25 18:38:37.393,0.789995,0.850496,215.292572,0.013859,0.010520,0.977980,0.115326,0.152335,9.739187,0.003709,0.001331,0.000116,-0.089655,-0.595770,-1.192270,100305.0000
1764076117496125319,2025-11-25 18:38:37.493,0.803567,0.848143,215.332153,0.014039,0.011118,0.977998,0.174651,0.081522,9.806530,0.003290,-0.002714,-0.007642,-0.089659,-0.598137,-1.191271,100304.0000
1764076117596382856,2025-11-25 18:38:37.593,0.803334,0.843365,215.377167,0.013736,0.011307,0.977906,0.129332,0.162650,9.746242,-0.001173,-0.003981,-0.004530,-0.090144,-0.598150,-1.191745,100302.0000
1764076117695757856,2025-11-25 18:38:37.693,0.793994,0.846694,215.428925,0.013417,0.011322,0.978205,0.167642,0.064460,9.816671,0.006956,-0.004050,-0.011564,-0.087755,-0.597713,-1.194195,100306.0000
1764076117796157208,2025-11-25 18:38:37.793,0.784686,0.851513,215.485535,0.013271,0.010017,0.978469,0.111255,0.129156,9.764318,-0.003674,-0.005121,-0.005405,-0.089660,-0.597670,-1.191760,100302.0000
1764076117896525245,2025-11-25 18:38:37.893,0.780019,0.864648,215.541504,0.013664,0.009701,0.979005,0.164987,0.045226,9.810968,0.000694,-0.004912,-0.011656,-0.091132,-0.598693,-1.194612,100308.0000
1764076117995676338,2025-11-25 18:38:37.993,0.777656,0.876347,215.584412,0.014490,0.009885,0.979277,0.124860,0.157019,9.767979,-0.000277,-0.000297,-0.001016,-0.086289,-0.598590,-1.190832,100304.0000
1764076118095763949,2025-11-25 18:38:38.093,0.781922,0.880775,215.625122,0.015248,0.010330,0.979510,0.194342,0.065804,9.821253,0.003794,-0.001536,-0.002777,-0.087732,-0.597651,-1.191307,100302.0000
1764076118196760689,2025-11-25 18:38:38.193,0.788093,0.867302,215.668915,0.015497,0.010643,0.978806,0.108761,0.151902,9.757492,-0.001752,-0.000687,-0.002421,-0.090143,-0.599563,-1.190760,100302.0000
1764076118295920504,2025-11-25 18:38:38.293,0.790364,0.844096,215.724884,0.015444,0.010346,0.978116,0.188878,0.058118,9.807073,-0.000430,0.003311,-0.007687,-0.086308,-0.601466,-1.191269,100302.0000
1764076118396157300,2025-11-25 18:38:38.393,0.795962,0.810634,215.774231,0.014409,0.009747,0.977510,0.110591,0.133175,9.743925,0.002272,0.003187,-0.007099,-0.084862,-0.599569,-1.192283,100302.0000
1764076118496040745,2025-11-25 18:38:38.493,0.802640,0.778920,215.825577,0.013129,0.009658,0.977740,0.161641,0.048873,9.813281,0.006039,0.002930,-0.009488,-0.083409,-0.599065,-1.191349,100300.0000
1764076118596089337,2025-11-25 18:38:38.593,0.809560,0.764326,215.879166,0.011578,0.009943,0.978000,0.075063,0.145064,9.771870,0.000150,0.001712,-0.003820,-0.085320,-0.597153,-1.190868,100301.0000
1764076118695951578,2025-11-25 18:38:38.693,0.826562,0.777033,215.930939,0.010994,0.010062,0.978557,0.132790,0.051700,9.813903,0.007818,-0.006765,-0.007793,-0.084859,-0.600504,-1.191305,100302.0000
1764076118796368115,2025-11-25 18:38:38.793,0.840492,0.811745,215.977478,0.012155,0.010684,0.978771,0.097445,0.169417,9.763188,-0.000427,-0.007689,-0.002724,-0.082940,-0.600039,-1.192304,100303.0000
1764076118895917837,2025-11-25 18:38:38.892,0.845824,0.848881,216.028793,0.014201,0.011716,0.979093,0.176469,0.081756,9.795318,0.004972,-0.009313,-0.007225,-0.084839,-0.599508,-1.189394,100313.0000
1764076118996042707,2025-11-25 18:38:38.993,0.842856,0.873760,216.085800,0.015808,0.011637,0.978771,0.147026,0.179816,9.764752,-0.003867,-0.000624,-0.003165,-0.085817,-0.599553,-1.191306,100306.0000
1764076119095462429,2025-11-25 18:38:39.092,0.826676,0.867279,216.166229,0.016959,0.012482,0.978965,0.274273,0.142582,9.808597,-0.003581,0.006081,-0.021190,-0.084873,-0.602425,-1.191757,100302.0000
1764076119195634355,2025-11-25 18:38:39.193,0.792921,0.822173,216.341644,0.014719,0.012459,0.977521,0.167765,0.292502,9.809293,-0.012326,0.000684,-0.033307,-0.080537,-0.601451,-1.191836,100301.0000
1764076119295986837,2025-11-25 18:38:39.293,0.747112,0.838737,216.652969,0.015320,0.012411,0.979008,0.090340,0.032360,9.870442,-0.010073,0.000848,-0.071096,-0.079586,-0.604302,-1.191325,100306.0000
1764076119395922726,2025-11-25 18:38:39.393,0.699358,0.779765,217.307022,0.013492,0.011445,0.978519,-0.340210,-0.547443,9.481373,-0.003002,0.011356,-0.149204,-0.068542,-0.603369,-1.194873,100306.0000
1764076119495770781,2025-11-25 18:38:39.493,0.655540,0.730653,218.476776,0.008257,0.015870,0.977211,0.167622,0.706322,9.690538,-0.004470,0.018039,-0.256663,-0.053670,-0.609074,-1.196931,100305.0000
1764076119596171337,2025-11-25 18:38:39.593,0.649494,0.835372,220.027832,-0.000204,0.002114,0.974514,0.309254,-0.127008,9.903543,0.006440,-0.033117,-0.278475,-0.033950,-0.615134,-1.194239,100306.0000
1764076119696158133,2025-11-25 18:38:39.693,0.686668,1.018406,221.733444,0.011463,0.008143,0.978208,0.160948,0.393828,9.644141,0.001990,-0.034144,-0.312081,-0.016636,-0.620260,-1.192008,100302.0000
1764076119795949373,2025-11-25 18:38:39.793,0.744383,1.159551,223.574493,0.025595,0.006038,0.981332,0.400880,0.071653,9.746218,0.016477,-0.014564,-0.320718,0.004958,-0.628801,-1.194122,100306.0000
1764076119896355429,2025-11-25 18:38:39.893,0.797089,1.170254,225.576035,0.028292,0.015454,0.980919,-0.251959,0.272268,9.533664,0.002713,-0.001277,-0.372510,0.029963,-0.635326,-1.191982,100308.0000
1764076119995364466,2025-11-25 18:38:39.993,0.835635,1.036690,227.697510,0.028923,0.010542,0.981128,0.247143,0.038659,9.769723,-0.008021,0.025456,-0.375911,0.059288,-0.639503,-1.192832,100308.0000
1764076120095879558,2025-11-25 18:38:40.093,0.852621,0.806778,229.849442,0.023341,0.008652,0.981098,0.302075,-0.014616,9.708397,0.003996,0.040485,-0.371453,0.087676,-0.641733,-1.191770,100303.0000
1764076120196186503,2025-11-25 18:38:40.193,0.857196,0.583146,231.952377,0.009544,0.013155,0.978307,0.035225,0.311050,9.635268,-0.005886,0.039516,-0.360566,0.118437,-0.645925,-1.193604,100311.0000
1764076120296258207,2025-11-25 18:38:40.293,0.844279,0.454438,233.988213,-0.000746,0.009452,0.975818,-0.379810,-0.569984,9.594932,-0.002909,0.007478,-0.348002,0.144896,-0.645816,-1.194477,100308.0000
1764076120395854799,2025-11-25 18:38:40.393,0.822262,0.448594,235.977325,-0.000205,0.012723,0.974046,0.204377,0.109999,9.769883,-0.007704,-0.017258,-0.343067,0.170374,-0.649533,-1.195276,100304.0000
1764076120495943521,2025-11-25 18:38:40.493,0.779434,0.531640,237.982368,0.005527,0.012647,0.974347,0.333779,0.336460,9.913555,-0.010660,-0.024500,-0.351742,0.194932,-0.647959,-1.194217,100303.0000
1764076120595631058,2025-11-25 18:38:40.593,0.717360,0.645264,240.055923,0.009175,0.012975,0.978338,0.188195,-0.325372,9.969296,-0.021095,-0.025270,-0.374650,0.222845,-0.644988,-1.195636,100305.0000
1764076120696191817,2025-11-25 18:38:40.693,0.685181,0.746548,242.197609,0.015243,0.002775,0.979614,0.323642,-0.615121,9.695824,0.008617,-0.021236,-0.367765,0.248329,-0.644447,-1.198428,100305.0000
1764076120791124669,2025-11-25 18:38:40.787,0.698666,0.803912,257.840149,0.019730,0.009572,0.981688,0.281051,0.714700,9.735156,-0.006581,-0.003295,-0.377396,0.277714,-0.640453,-1.196995,100305.0000
1764076120896133336,2025-11-25 18:38:40.893,0.746203,0.788776,274.927452,0.020616,0.004870,0.980662,0.233518,-0.417035,9.755256,0.004902,0.007280,-0.354591,0.304197,-0.634154,-1.198925,100304.0000
1764076120996253410,2025-11-25 18:38:40.993,0.794795,0.700216,276.979515,0.017662,0.010407,0.979131,0.034597,0.099116,9.741186,0.004590,0.015163,-0.350024,0.331665,-0.630149,-1.196501,100302.0000
1764076121096515410,2025-11-25 18:38:41.093,0.809302,0.589611,279.013985,0.014787,0.013537,0.977565,0.299211,-0.133921,9.702958,0.005082,0.014139,-0.349163,0.355727,-0.627673,-1.197856,100305.0000
1764076121196138225,2025-11-25 18:38:41.193,0.772365,0.475848,281.083565,0.010218,0.017515,0.978239,0.224729,0.890259,9.988480,-0.012759,0.014256,-0.364599,0.383209,-0.618443,-1.196956,100309.0000
1764076121295919224,2025-11-25 18:38:41.293,0.701052,0.416791,283.195038,0.006214,0.011471,0.979601,0.073717,-0.262271,9.971760,-0.011231,-0.002502,-0.377755,0.410175,-0.612610,-1.198405,100303.0000
1764076121396395335,2025-11-25 18:38:41.393,0.652760,0.445396,285.313332,0.006602,0.004469,0.976735,0.172830,0.183822,9.560269,0.001182,-0.012790,-0.354184,0.435247,-0.601989,-1.198936,100303.0000
1764076121495896058,2025-11-25 18:38:41.493,0.649378,0.536682,287.419243,0.009210,0.008918,0.977749,0.115062,-0.040251,9.718785,0.003794,-0.019953,-0.368589,0.461745,-0.592825,-1.200911,100298.0000
1764076121595763391,2025-11-25 18:38:41.593,0.686227,0.644350,289.481697,0.014147,0.006252,0.976776,0.204976,-0.117146,9.766538,0.005198,-0.020591,-0.352005,0.483451,-0.581741,-1.201399,100307.0000
1764076121695970335,2025-11-25 18:38:41.693,0.733006,0.710386,291.508942,0.017413,0.011369,0.976904,0.021865,-0.154585,9.629666,0.011478,-0.011454,-0.348424,0.507073,-0.571146,-1.202872,100307.0000
1764076121795941335,2025-11-25 18:38:41.793,0.747582,0.706194,293.527756,0.020139,0.014983,0.977351,0.208001,0.337645,9.794712,-0.002296,-0.001406,-0.351653,0.530241,-0.558592,-1.201959,100303.0000
1764076121895497817,2025-11-25 18:38:41.893,0.709384,0.657139,295.557671,0.017502,0.015557,0.980769,0.172488,0.167331,9.952085,-0.013433,0.004440,-0.355666,0.554830,-0.548451,-1.202476,100304.0000
1764076121995737557,2025-11-25 18:38:41.993,0.635881,0.609080,297.602497,0.014308,0.012120,0.982119,0.239947,-0.168738,9.968326,-0.017177,0.003567,-0.362018,0.577533,-0.530675,-1.203081,100302.0000
1764076122095776483,2025-11-25 18:38:42.093,0.568537,0.585387,299.653591,0.012636,0.005932,0.980057,0.308366,-0.348076,9.842067,-0.007664,0.000048,-0.351856,0.598296,-0.515774,-1.203614,100302.0000
1764076122196314224,2025-11-25 18:38:42.193,0.539874,0.594826,301.713612,0.012059,0.007198,0.977248,0.098853,0.567231,9.763984,-0.002715,-0.007109,-0.358285,0.620487,-0.501853,-1.205598,100302.0000
1764076122295978687,2025-11-25 18:38:42.293,0.556386,0.622258,303.781006,0.013640,0.005948,0.977030,0.037379,0.219096,9.772480,0.003092,-0.011687,-0.360976,0.642241,-0.484986,-1.203767,100302.0000
1764076122396095724,2025-11-25 18:38:42.393,0.613561,0.640009,305.778870,0.015408,0.004427,0.977547,-0.008424,-0.061540,9.683246,0.011988,-0.006627,-0.331395,0.663480,-0.469158,-1.205766,100309.0000
1764076122496061539,2025-11-25 18:38:42.493,0.682399,0.648452,307.629631,0.017341,0.009882,0.976678,0.156504,0.195420,9.677461,0.002684,-0.001960,-0.309194,0.679942,-0.453727,-1.202872,100310.0000
1764076122596227353,2025-11-25 18:38:42.593,0.713038,0.628809,309.358387,0.017388,0.014086,0.978021,0.044573,0.404108,9.727983,-0.000225,-0.000209,-0.298652,0.696880,-0.440195,-1.199476,100310.0000
1764076122696132575,2025-11-25 18:38:42.693,0.696791,0.577904,310.973404,0.019459,0.012476,0.979490,0.285281,-0.172463,9.829394,-0.003701,0.007705,-0.267385,0.711838,-0.426347,-1.203278,100306.0000
1764076122796036909,2025-11-25 18:38:42.793,0.656442,0.647413,312.434246,0.011683,0.009232,0.975355,0.134100,0.088068,9.838727,-0.013190,-0.031402,-0.242656,0.725840,-0.408244,-1.209058,100303.0000
1764076122895348853,2025-11-25 18:38:42.892,0.637311,0.922906,313.732887,0.023047,0.007923,0.977126,0.278617,0.169880,9.732629,0.001894,-0.059100,-0.204728,0.734560,-0.397676,-1.208384,100304.0000
1764076122995898946,2025-11-25 18:38:42.993,0.645916,1.520585,314.719921,0.034664,0.003068,0.969726,0.411854,-0.039835,9.651000,-0.007274,-0.169690,-0.131963,0.737446,-0.387297,-1.215327,100302.0000
1764076123095464909,2025-11-25 18:38:43.092,0.676852,2.620134,315.241203,0.085358,0.003509,0.972777,1.125101,0.062734,9.603470,0.014253,-0.201668,-0.058687,0.731139,-0.382275,-1.224943,100306.0000
1764076123196202983,2025-11-25 18:38:43.193,0.672889,3.562062,315.551594,0.139882,0.012704,0.978221,1.525809,0.139057,9.927386,-0.006766,-0.112127,-0.044493,0.724840,-0.378177,-1.233100,100298.0000
1764076123295390594,2025-11-25 18:38:43.293,0.613510,3.852533,315.866909,0.167047,0.014250,0.975040,1.475690,0.120143,9.606034,-0.026862,-0.016307,-0.061000,0.721435,-0.376404,-1.238856,100298.0000
1764076123395945834,2025-11-25 18:38:43.393,0.523027,3.789777,316.311832,0.167452,0.006753,0.974186,1.741444,-0.262541,9.780662,-0.024501,0.022898,-0.092546,0.727223,-0.372099,-1.239970,100303.0000
1764076123496419094,2025-11-25 18:38:43.493,0.443770,3.600976,316.821987,0.159653,0.000777,0.974312,2.192352,0.169186,10.090615,-0.017093,0.051223,-0.094200,0.731134,-0.362020,-1.238736,100296.0000
1764076123595751427,2025-11-25 18:38:43.593,0.438279,3.384400,317.272949,0.139542,-0.006318,0.970002,1.470526,0.388767,9.993174,0.003150,0.041950,-0.076715,0.738369,-0.361469,-1.236925,100300.0000
1764076123696015334,2025-11-25 18:38:43.693,0.494345,3.177644,317.653545,0.127978,-0.005364,0.968966,1.050460,0.084265,9.662825,0.013297,0.035302,-0.056137,0.743712,-0.357542,-1.233211,100304.0000
1764076123796515316,2025-11-25 18:38:43.793,0.576204,3.071562,317.996536,0.116593,0.000266,0.968424,0.823707,-0.667341,9.560761,0.017376,0.003252,-0.056383,0.748066,-0.354159,-1.232363,100304.0000
1764076123895743075,2025-11-25 18:38:43.893,0.637218,3.116054,318.262398,0.110457,0.006043,0.969308,1.014391,-0.575321,9.579820,-0.003261,-0.029492,-0.040369,0.748079,-0.350825,-1.232896,100306.0000
1764076123995621204,2025-11-25 18:38:43.993,0.667827,3.295409,318.425388,0.113442,0.009264,0.972035,1.420906,0.886941,9.734606,0.001273,-0.045504,-0.028784,0.751422,-0.350404,-1.236323,100305.0000
1764076124095945649,2025-11-25 18:38:44.093,0.672802,3.563414,318.504578,0.122378,0.006286,0.974022,1.242307,0.347232,9.798677,0.004065,-0.045737,0.006123,0.746123,-0.350915,-1.236719,100305.0000
1764076124196235926,2025-11-25 18:38:44.193,0.679611,3.833248,318.524330,0.130864,0.009948,0.974808,1.400054,-0.056178,9.967148,0.012154,-0.022716,0.006269,0.745155,-0.349050,-1.238659,100306.0000
1764076124296391963,2025-11-25 18:38:44.293,0.698689,3.821528,318.498020,0.129775,0.011106,0.973594,1.382365,-0.168391,9.735000,0.003027,0.030798,0.017077,0.741775,-0.351453,-1.238573,100304.0000
1764076124396257834,2025-11-25 18:38:44.393,0.737495,3.414053,318.406578,0.114644,0.013606,0.975487,1.074314,0.181291,9.788129,0.011246,0.102908,0.017278,0.749505,-0.352750,-1.233851,100310.0000
1764076124496676889,2025-11-25 18:38:44.493,0.773154,2.776415,318.235420,0.075291,0.015322,0.976115,0.182893,0.128788,9.721575,0.008130,0.119069,0.046085,0.752443,-0.352604,-1.227635,100305.0000
1764076124596224611,2025-11-25 18:38:44.593,0.772906,2.202250,317.975433,0.038824,0.021404,0.979621,0.175682,0.605759,9.560089,-0.001639,0.073011,0.044163,0.755350,-0.355366,-1.223302,100300.0000
1764076124696237352,2025-11-25 18:38:44.693,0.739685,1.903178,317.600193,0.020748,0.017014,0.980822,0.736458,0.694010,9.739791,-0.001849,0.016206,0.072645,0.755365,-0.357682,-1.219895,100308.0000
1764076124795248130,2025-11-25 18:38:44.792,0.706082,1.900073,317.110573,0.020171,0.016985,0.982645,0.460530,0.308937,9.903946,0.000882,-0.021528,0.085414,0.753903,-0.365281,-1.217350,100302.0000
1764076124896802259,2025-11-25 18:38:44.893,0.683404,2.084190,316.548920,0.032350,0.018217,0.977010,0.713143,-0.167297,9.767197,0.001950,-0.029615,0.106992,0.746631,-0.370171,-1.221021,100300.0000
1764076124995596648,2025-11-25 18:38:44.993,0.680429,2.293730,315.910553,0.046889,0.018277,0.975616,0.250624,0.473009,9.468122,0.009896,-0.016376,0.112143,0.740334,-0.375495,-1.222774,100300.0000
1764076125095754352,2025-11-25 18:38:45.093,0.693727,2.379527,315.196201,0.054603,0.019077,0.974503,0.302241,0.106956,9.756449,0.013624,0.006804,0.142570,0.734054,-0.381245,-1.222112,100305.0000
1764076125196386352,2025-11-25 18:38:45.193,0.732506,2.300437,314.426418,0.054848,0.023856,0.975233,0.266876,0.219096,9.713572,0.019958,0.027753,0.128961,0.730639,-0.394584,-1.219450,100308.0000
1764076125296448629,2025-11-25 18:38:45.293,0.773956,2.134269,313.622898,0.045460,0.026933,0.977479,0.162219,0.338660,9.667333,0.014905,0.028895,0.149831,0.722924,-0.400320,-1.217804,100308.0000
1764076125396407352,2025-11-25 18:38:45.393,0.795503,1.980582,312.801018,0.035176,0.030239,0.978612,-0.198125,0.381477,9.613782,0.013181,0.012635,0.146891,0.716656,-0.407452,-1.214714,100304.0000
1764076125495983277,2025-11-25 18:38:45.493,0.780238,1.914006,311.945610,0.036976,0.029200,0.981230,1.558002,-0.029907,10.285966,0.001634,0.008504,0.154623,0.710355,-0.415144,-1.215467,100306.0000
1764076125595345277,2025-11-25 18:38:45.593,0.757136,1.960945,311.043804,0.032129,0.029116,0.978360,0.162726,0.601613,9.462800,0.006324,-0.001529,0.157153,0.701162,-0.423803,-1.216163,100306.0000
1764076125695913018,2025-11-25 18:38:45.693,0.756369,2.092236,310.103493,0.032114,0.024283,0.975206,-0.874954,-0.089745,9.586636,0.003614,-0.021890,0.164350,0.692446,-0.433416,-1.216851,100300.0000
1764076125796776518,2025-11-25 18:38:45.793,0.782875,2.246715,309.131550,0.041964,0.028284,0.972898,0.838922,0.347216,9.872874,0.020204,-0.028647,0.170617,0.683755,-0.442490,-1.214658,100301.0000
1764076125896112370,2025-11-25 18:38:45.893,0.813150,2.343162,308.134377,0.051043,0.030839,0.977767,1.638073,0.207559,9.935956,0.014062,0.003798,0.172047,0.672128,-0.451710,-1.218681,100309.0000
1764076125996085444,2025-11-25 18:38:45.993,0.839787,2.371488,307.118927,0.041391,0.030986,0.976087,0.451115,0.425579,9.462004,0.010129,-0.010988,0.184564,0.659568,-0.459440,-1.219823,100305.0000
1764076126095488240,2025-11-25 18:38:46.093,0.859937,2.366950,306.082565,0.043790,0.032797,0.977801,-0.002241,0.200286,9.440108,0.004566,-0.004353,0.187044,0.652350,-0.467958,-1.214289,100299.0000
1764076126197019592,2025-11-25 18:38:46.193,0.871357,2.371994,305.032963,0.040781,0.033811,0.977757,-0.256483,0.444797,9.439533,0.005778,-0.007225,0.180277,0.642187,-0.479000,-1.214453,100298.0000
1764076126295326684,2025-11-25 18:38:46.293,0.862631,2.435401,303.981026,0.041590,0.034681,0.977611,0.406917,0.149644,9.677417,-0.007783,-0.017542,0.183153,0.628675,-0.486236,-1.214625,100304.0000
1764076126395727925,2025-11-25 18:38:46.393,0.826709,2.543403,302.927448,0.043176,0.035040,0.976675,1.061535,0.255827,9.949751,-0.000796,-0.028725,0.187017,0.616105,-0.496822,-1.215242,100302.0000
1764076126495944573,2025-11-25 18:38:46.493,0.772464,2.689343,301.871033,0.051241,0.032054,0.977150,1.322380,0.064919,9.701744,0.003370,-0.016431,0.183203,0.603553,-0.501705,-1.217391,100304.0000
1764076126596255129,2025-11-25 18:38:46.593,0.729554,2.819831,300.801365,0.055851,0.030298,0.976081,0.481954,0.299889,9.942831,-0.005056,-0.019111,0.186603,0.592428,-0.509449,-1.219517,100293.0000
1764076126695901018,2025-11-25 18:38:46.693,0.707705,2.891760,299.725479,0.056333,0.027360,0.978070,-0.376050,0.263670,9.602903,0.018020,0.000210,0.190190,0.580352,-0.519056,-1.219192,100300.0000
1764076126796012425,2025-11-25 18:38:46.793,0.714800,2.892888,298.659321,0.059975,0.030244,0.976868,1.099115,0.188470,9.937391,0.001603,-0.006634,0.184897,0.568769,-0.527686,-1.217927,100301.0000
1764076126896000851,2025-11-25 18:38:46.893,0.748640,2.848916,297.618099,0.061256,0.029724,0.977516,1.099464,0.161666,9.554550,0.028043,0.019042,0.176169,0.559618,-0.532463,-1.215793,100307.0000
1764076126995350036,2025-11-25 18:38:46.993,0.784190,2.797945,296.622299,0.054022,0.034457,0.978570,0.228278,0.250180,10.133985,0.012302,0.020282,0.174364,0.548033,-0.540158,-1.215506,100304.0000
1764076127095555388,2025-11-25 18:38:47.092,0.816341,2.761489,295.669189,0.044917,0.033641,0.975045,-0.499293,0.491586,9.323701,0.018089,-0.001815,0.163334,0.536945,-0.548277,-1.212810,100305.0000
1764076127196190832,2025-11-25 18:38:47.193,0.828770,2.798996,294.743126,0.049377,0.031612,0.975724,1.157637,0.294755,9.462420,0.011687,-0.001707,0.163051,0.526338,-0.554037,-1.211603,100305.0000
1764076127296006665,2025-11-25 18:38:47.293,0.806969,2.903842,293.829468,0.049423,0.034184,0.978042,-0.759603,0.126804,9.977211,0.000702,-0.011252,0.159544,0.514774,-0.557432,-1.211381,100304.0000
1764076127395955239,2025-11-25 18:38:47.393,0.763774,3.006409,292.920395,0.057678,0.029232,0.976740,1.800034,0.434607,10.082793,0.003601,-0.022520,0.162610,0.504124,-0.565194,-1.214477,100302.0000
1764076127495930758,2025-11-25 18:38:47.493,0.723762,3.053697,292.017967,0.063142,0.027332,0.978399,0.259100,0.222909,9.971006,0.004355,0.001419,0.165925,0.492544,-0.572401,-1.213715,100304.0000
1764076127595746350,2025-11-25 18:38:47.593,0.702256,3.071849,291.122101,0.057052,0.023663,0.977208,1.299248,-0.224601,9.970405,0.003014,-0.022839,0.162029,0.484351,-0.575771,-1.213062,100308.0000
1764076127695612610,2025-11-25 18:38:47.693,0.709938,3.054980,290.230064,0.065368,0.027621,0.977582,0.876652,0.444821,9.618865,0.012084,0.012845,0.148595,0.472794,-0.578679,-1.212366,100305.0000
1764076127795714295,2025-11-25 18:38:47.793,0.743691,3.021928,289.381073,0.050668,0.025580,0.975281,-0.899160,0.475754,9.526879,0.014092,0.013504,0.136861,0.460737,-0.585877,-1.211115,100304.0000
1764076127896015998,2025-11-25 18:38:47.893,0.786913,3.008352,288.574699,0.057803,0.028143,0.978662,1.855131,0.162025,10.085071,0.013863,0.005682,0.143331,0.454964,-0.588729,-1.209060,100300.0000
1764076127995347480,2025-11-25 18:38:47.993,0.793288,3.007706,287.786018,0.054852,0.029968,0.976247,0.270072,-0.224110,9.848393,0.000558,0.008886,0.143637,0.444820,-0.594537,-1.210267,100302.0000
1764076128096029109,2025-11-25 18:38:48.093,0.765394,3.038419,287.012863,0.046563,0.028129,0.975275,-0.933807,0.154038,9.208983,0.007413,-0.011628,0.131064,0.433277,-0.597404,-1.207646,100304.0000
1764076128195826609,2025-11-25 18:38:48.193,0.718721,3.101388,286.234924,0.053748,0.025943,0.974735,1.365264,0.392930,9.713764,0.001350,-0.019958,0.143420,0.423147,-0.597988,-1.210377,100304.0000
1764076128295636665,2025-11-25 18:38:48.293,0.690454,3.180549,285.453148,0.060553,0.021765,0.979545,0.607605,-0.244365,10.047061,0.003858,-0.006902,0.141655,0.415438,-0.600879,-1.209738,100306.0000
1764076128396446942,2025-11-25 18:38:48.393,0.683688,3.217615,284.667419,0.057158,0.022775,0.977847,-0.304790,0.197459,9.955576,0.015421,0.003399,0.133888,0.404369,-0.606122,-1.206606,100306.0000
1764076128495729739,2025-11-25 18:38:48.493,0.694686,3.194044,283.899712,0.061902,0.026342,0.978037,-0.156230,0.399433,9.291872,0.014400,0.013586,0.125934,0.396165,-0.607165,-1.208877,100312.0000
1764076128596239498,2025-11-25 18:38:48.593,0.701838,3.141846,283.183861,0.056618,0.028439,0.975522,0.097903,0.763613,9.405950,0.000328,0.004201,0.115425,0.387011,-0.613365,-1.206240,100303.0000
1764076128696113590,2025-11-25 18:38:48.693,0.702678,3.097575,282.518608,0.049846,0.022104,0.974145,-0.180657,-0.398567,9.442362,-0.000130,-0.000720,0.105866,0.376878,-0.613959,-1.209453,100301.0000
1764076128796460072,2025-11-25 18:38:48.793,0.698333,3.101582,281.893921,0.050348,0.021833,0.978110,0.123947,-0.112947,9.760600,0.006348,-0.014100,0.119112,0.366761,-0.618751,-1.207786,100302.0000
1764076128895761683,2025-11-25 18:38:48.892,0.686928,3.144852,281.298820,0.050789,0.023929,0.977392,0.003953,0.684451,9.224173,0.005218,-0.016108,0.098754,0.363874,-0.618764,-1.207744,100304.0000
1764076128995329405,2025-11-25 18:38:48.993,0.674584,3.206971,280.740028,0.054842,0.024794,0.976648,0.071732,0.100932,9.406902,-0.001357,-0.009780,0.082539,0.353754,-0.621208,-1.208039,100301.0000
1764076129095605109,2025-11-25 18:38:49.093,0.666854,3.252617,280.215347,0.056150,0.015901,0.979088,-0.370611,0.011128,10.034854,0.014330,-0.002675,0.087523,0.351341,-0.625009,-1.206500,100301.0000
1764076129196564923,2025-11-25 18:38:49.193,0.668254,3.281616,279.731133,0.057549,0.024089,0.975223,0.811477,0.416777,10.311123,-0.009232,-0.016190,0.086802,0.342693,-0.626430,-1.203944,100302.0000
1764076129296319738,2025-11-25 18:38:49.293,0.678143,3.282408,279.294388,0.060584,0.017872,0.978456,0.371145,0.394766,9.511122,0.009195,0.015867,0.078500,0.336897,-0.626985,-1.206258,100306.0000
1764076129395969071,2025-11-25 18:38:49.393,0.694427,3.267801,278.874229,0.053118,0.016970,0.976157,1.252157,0.168534,9.724762,0.009504,0.001466,0.065796,0.329684,-0.628420,-1.204685,100304.0000
1764076129495924942,2025-11-25 18:38:49.493,0.729158,3.219028,278.472839,0.056343,0.019256,0.977828,0.204260,0.059118,9.374882,0.017021,0.011740,0.072836,0.329677,-0.628440,-1.205648,100312.0000
1764076129595690108,2025-11-25 18:38:49.593,0.764083,3.158981,278.114456,0.052363,0.022491,0.977857,0.059632,0.192100,10.043097,0.002472,0.018520,0.054395,0.323908,-0.631281,-1.203112,100306.0000
1764076129696576368,2025-11-25 18:38:49.693,0.780340,3.126784,279.292435,0.046706,0.019620,0.974696,1.337178,-0.283623,10.003325,0.006062,0.001071,0.054784,0.322452,-0.632263,-1.204039,100310.0000
1764076129795863886,2025-11-25 18:38:49.793,0.776198,3.128089,278.981033,0.047560,0.019935,0.978213,0.435577,0.379655,9.521729,-0.000654,-0.003826,0.062372,0.315728,-0.633676,-1.201510,100299.0000
1764076129895568460,2025-11-25 18:38:49.892,0.775586,3.193242,278.689636,0.050744,0.018843,0.979381,0.022254,0.031385,9.868396,-0.000553,-0.005541,0.048211,0.309451,-0.636591,-1.202336,100303.0000
1764076129995603886,2025-11-25 18:38:49.993,0.759323,3.281688,278.428719,0.052759,0.019269,0.975698,1.401514,-0.085964,10.032401,-0.004828,-0.029444,0.048620,0.305588,-0.634758,-1.205197,100304.0000
1764076130095659664,2025-11-25 18:38:50.092,0.731734,3.361363,278.211876,0.061433,0.017675,0.976550,0.777511,0.397364,9.605837,-0.002573,-0.009764,0.052744,0.301293,-0.633741,-1.201296,100306.0000
1764076130195771330,2025-11-25 18:38:50.193,0.702259,3.392278,278.004486,0.065857,0.013307,0.977034,0.688174,-0.083393,9.933511,0.008421,0.013112,0.037833,0.297434,-0.634256,-1.202195,100304.0000
1764076130296123404,2025-11-25 18:38:50.293,0.682818,3.358642,277.799599,0.060373,0.013907,0.974636,0.037216,-0.222941,9.490598,-0.002380,0.007273,0.040613,0.297909,-0.636154,-1.201692,100301.0000
1764076130396012867,2025-11-25 18:38:50.393,0.688798,3.252821,277.651123,0.058346,0.016430,0.977669,0.829022,0.422053,9.923604,0.007856,0.016534,0.011522,0.296457,-0.637127,-1.202137,100302.0000
1764076130495668497,2025-11-25 18:38:50.493,0.714901,3.146743,277.596573,0.052280,0.012553,0.977220,0.963591,0.026459,9.867151,0.016390,0.025109,0.016453,0.296939,-0.637125,-1.202144,100306.0000
1764076130595316830,2025-11-25 18:38:50.592,0.766730,3.110579,277.604713,0.043937,0.011914,0.976611,0.080627,-0.044146,9.518477,0.011986,0.008725,0.007038,0.292621,-0.635223,-1.201628,100306.0000
1764076130695614423,2025-11-25 18:38:50.692,0.808980,3.146475,277.633415,0.042172,0.015276,0.977498,0.492307,0.359272,9.831602,0.008740,-0.007188,0.000067,0.294050,-0.636670,-1.202590,100302.0000
1764076130795586645,2025-11-25 18:38:50.793,0.819491,3.232075,277.681381,0.045100,0.015250,0.977245,0.046439,-0.264758,9.644981,-0.002270,-0.027695,0.002526,0.292129,-0.639026,-1.200599,100305.0000
1764076130895663959,2025-11-25 18:38:50.893,0.775678,3.330775,277.778816,0.056526,0.017106,0.979073,1.032500,0.171618,9.951255,-0.010704,-0.019027,-0.027821,0.294055,-0.637127,-1.201620,100304.0000
1764076130996281404,2025-11-25 18:38:50.993,0.695219,3.395130,277.919388,0.064523,0.009956,0.978904,1.374539,0.022430,10.109896,-0.011989,0.000609,-0.016745,0.293579,-0.633816,-1.203108,100297.0000
1764076131095506107,2025-11-25 18:38:51.092,0.624903,3.372100,278.091370,0.062023,0.004192,0.975976,0.360913,-0.008216,9.580850,-0.006368,0.025452,-0.020188,0.293567,-0.634792,-1.204056,100306.0000
1764076131195786256,2025-11-25 18:38:51.193,0.603209,3.247020,278.293648,0.059710,0.002202,0.976834,0.402809,-0.144092,9.746593,-0.000731,0.023607,-0.038146,0.297425,-0.633809,-1.203647,100303.0000
1764076131295319218,2025-11-25 18:38:51.292,0.627349,3.084208,278.559387,0.050479,0.002593,0.976559,0.456298,-0.091341,9.880999,0.000794,0.027004,-0.058043,0.302223,-0.633350,-1.205650,100312.0000
1764076131396012626,2025-11-25 18:38:51.393,0.673287,2.948197,278.878876,0.042004,0.002447,0.977867,0.501172,-0.038306,10.062072,-0.003986,0.018615,-0.038205,0.308491,-0.633759,-1.203810,100306.0000
1764076131495898274,2025-11-25 18:38:51.493,0.710129,2.886292,279.192497,0.035974,0.006262,0.977326,0.227258,0.023093,9.709104,0.005489,0.000419,-0.056274,0.313330,-0.631309,-1.201992,100304.0000
1764076131595676218,2025-11-25 18:38:51.593,0.699296,2.873075,279.498367,0.038310,0.008927,0.978395,0.251749,0.319090,9.686679,-0.011263,-0.004238,-0.047997,0.315257,-0.630822,-1.202028,100304.0000
1764076131696320163,2025-11-25 18:38:51.693,0.644154,2.878535,279.826996,0.041533,0.006047,0.978195,0.700227,-0.019567,9.943969,-0.012985,-0.000789,-0.050565,0.319545,-0.633273,-1.205906,100302.0000
1764076131795732514,2025-11-25 18:38:51.793,0.569817,2.876087,280.185982,0.045084,0.003188,0.976928,0.358218,0.393803,9.690410,-0.017013,0.006649,-0.058897,0.322948,-0.628450,-1.204586,100306.0000
1764076131895351255,2025-11-25 18:38:51.893,0.525109,2.829814,280.582596,0.045800,-0.001811,0.978060,0.352931,-0.051325,9.700736,-0.006407,0.005827,-0.065460,0.329191,-0.630810,-1.204641,100302.0000
1764076131995356237,2025-11-25 18:38:51.993,0.539341,2.764855,281.007996,0.044200,-0.004909,0.978158,0.407299,-0.052104,9.800731,0.006571,0.012120,-0.065899,0.333519,-0.627498,-1.207163,100305.0000
1764076132095930237,2025-11-25 18:38:52.093,0.608991,2.692732,281.443192,0.043286,-0.003658,0.977826,0.461039,-0.099951,9.761153,0.021235,0.016495,-0.056587,0.341736,-0.624534,-1.204440,100306.0000
1764076132195945607,2025-11-25 18:38:52.193,0.681411,2.619660,281.861465,0.035456,0.002541,0.977034,0.367659,0.169105,9.679896,0.011821,0.010287,-0.066167,0.343136,-0.629355,-1.206795,100302.0000
1764076132295509940,2025-11-25 18:38:52.293,0.719131,2.563260,282.272156,0.033490,0.007075,0.977085,0.259385,0.002151,9.785364,-0.001329,0.011721,-0.058542,0.347988,-0.623571,-1.205510,100311.0000
1764076132395758940,2025-11-25 18:38:52.393,0.714865,2.537262,282.676048,0.035102,0.007833,0.980397,0.277899,0.459921,9.653613,0.000931,0.005570,-0.066696,0.353762,-0.624958,-1.204611,100294.0000
1764076132495871144,2025-11-25 18:38:52.493,0.685175,2.523003,283.087769,0.037225,0.004980,0.978811,0.510262,-0.181354,9.754520,-0.009873,0.004744,-0.065497,0.358083,-0.625437,-1.205630,100301.0000
1764076132596007514,2025-11-25 18:38:52.593,0.655129,2.504185,283.524071,0.034857,0.004030,0.977246,0.392748,0.063728,9.686958,-0.009688,0.001910,-0.062705,0.364857,-0.620121,-1.204366,100308.0000
1764076132696129662,2025-11-25 18:38:52.693,0.633630,2.499506,283.974556,0.036149,0.001000,0.977702,0.267184,-0.061316,9.671191,-0.001332,-0.001490,-0.081784,0.368704,-0.619636,-1.204912,100305.0000
1764076132796058218,2025-11-25 18:38:52.793,0.641904,2.487891,284.428696,0.037315,-0.002246,0.977385,0.665296,-0.122439,9.875663,0.003271,0.001899,-0.065788,0.374957,-0.617728,-1.206478,100310.0000
1764076132895577236,2025-11-25 18:38:52.892,0.665078,2.487058,284.867561,0.034879,-0.000168,0.976961,0.292600,-0.284580,9.638519,0.008182,-0.002827,-0.064303,0.379805,-0.614312,-1.204193,100307.0000
1764076132995569755,2025-11-25 18:38:52.993,0.669814,2.446379,285.298874,0.040751,0.004085,0.978848,0.250138,-0.289147,9.748357,0.003468,0.010598,-0.067866,0.382696,-0.613344,-1.204250,100305.0000
1764076133096123440,2025-11-25 18:38:53.093,0.663358,2.382172,285.737358,0.037057,0.004153,0.979126,0.517153,-0.104949,9.911710,-0.001239,0.012282,-0.073617,0.391350,-0.614738,-1.204357,100305.0000
1764076133196325773,2025-11-25 18:38:53.193,0.654701,2.339644,286.176399,0.033239,0.002746,0.978635,0.154550,0.087530,9.857499,-0.006528,0.008675,-0.074163,0.395694,-0.610439,-1.205449,100302.0000
1764076133296236865,2025-11-25 18:38:53.293,0.662719,2.308688,286.619263,0.031038,0.000771,0.977401,0.522902,-0.004538,9.820060,0.007307,0.001836,-0.080036,0.401963,-0.609903,-1.204105,100302.0000
1764076133395768532,2025-11-25 18:38:53.393,0.681464,2.300732,287.075073,0.032291,0.004574,0.977690,0.499534,0.101061,9.597571,-0.009004,-0.009585,-0.078621,0.408236,-0.605586,-1.204745,100302.0000
1764076133495521699,2025-11-25 18:38:53.493,0.692554,2.325305,287.572021,0.032889,0.002784,0.976931,0.247745,-0.189615,9.786342,0.003227,-0.008972,-0.082852,0.414984,-0.606938,-1.202415,100299.0000
1764076133596122736,2025-11-25 18:38:53.593,0.686351,2.371753,288.075768,0.034039,0.002811,0.976312,0.120615,0.280604,9.604452,-0.010237,-0.016018,-0.080297,0.416879,-0.606066,-1.206791,100306.0000
1764076133695533754,2025-11-25 18:38:53.693,0.681454,2.438885,288.538864,0.038481,-0.000015,0.977763,0.226624,0.053227,9.610883,0.001772,-0.010220,-0.068393,0.422179,-0.602251,-1.208372,100308.0000
1764076133795306310,2025-11-25 18:38:53.793,0.674142,2.466649,288.969566,0.043826,0.000853,0.980282,0.562520,-0.110646,9.939850,-0.006489,-0.002698,-0.066379,0.426525,-0.602191,-1.206510,100304.0000
1764076133895945328,2025-11-25 18:38:53.893,0.670838,2.435373,289.395897,0.039821,0.002830,0.979039,0.281238,-0.238988,9.554003,0.001239,0.008663,-0.071293,0.433764,-0.597859,-1.206683,100300.0000
1764076133996810754,2025-11-25 18:38:53.993,0.669959,2.384276,289.842003,0.035755,0.002539,0.978055,0.079843,0.370969,9.631218,-0.005262,-0.000744,-0.066064,0.438576,-0.596892,-1.207250,100304.0000
1764076134095477643,2025-11-25 18:38:54.092,0.670209,2.358680,290.318230,0.035771,0.003333,0.976174,0.150924,0.167596,9.777757,-0.005267,-0.009083,-0.087200,0.444357,-0.595434,-1.207358,100306.0000
1764076134196344013,2025-11-25 18:38:54.193,0.672765,2.385860,290.797279,0.036238,-0.001264,0.976127,0.333248,0.118934,9.823103,-0.000291,-0.012419,-0.071551,0.449185,-0.592068,-1.207480,100304.0000
1764076134295664217,2025-11-25 18:38:54.293,0.673395,2.410431,291.251404,0.039934,0.000762,0.978996,0.542045,-0.109314,9.725966,-0.003009,-0.002734,-0.077548,0.455458,-0.587751,-1.208119,100306.0000
1764076134395733402,2025-11-25 18:38:54.393,0.673723,2.413273,291.683640,0.036747,0.002959,0.978173,0.336884,0.091683,9.682605,0.003330,0.005158,-0.083313,0.460259,-0.585870,-1.210627,100306.0000
1764076134495744976,2025-11-25 18:38:54.493,0.672723,2.430537,292.102234,0.035677,0.001347,0.979175,0.685319,-0.066842,10.098351,-0.002674,-0.003213,-0.073837,0.466035,-0.586311,-1.210224,100300.0000
1764076134596125087,2025-11-25 18:38:54.593,0.662199,2.464675,292.517586,0.038099,0.004812,0.978558,0.215065,0.191873,9.705487,-0.002163,-0.008019,-0.080224,0.470391,-0.583395,-1.208887,100298.0000
1764076134695796328,2025-11-25 18:38:54.693,0.643770,2.517164,292.955299,0.042508,0.002690,0.977914,0.597711,-0.015293,9.938936,-0.005396,-0.005142,-0.079840,0.475210,-0.579583,-1.210461,100304.0000
1764076134796287328,2025-11-25 18:38:54.793,0.619043,2.540626,293.405518,0.042848,0.002324,0.975781,0.524430,0.217978,9.925190,-0.004603,-0.004689,-0.080713,0.480507,-0.579549,-1.210058,100300.0000
1764076134895643624,2025-11-25 18:38:54.893,0.608277,2.539878,293.854599,0.043299,-0.000037,0.976802,0.334598,0.052815,9.739141,-0.003463,0.000140,-0.065097,0.484840,-0.575749,-1.212106,100304.0000
1764076134996447716,2025-11-25 18:38:54.993,0.626311,2.505428,294.274712,0.043420,-0.001523,0.978440,0.378542,-0.021891,9.763352,0.002964,0.003242,-0.070761,0.489684,-0.572343,-1.210303,100301.0000
1764076135096269883,2025-11-25 18:38:55.093,0.663485,2.474401,294.661552,0.041410,0.000556,0.978841,0.341592,0.242390,9.821033,0.002399,0.009388,-0.068283,0.494997,-0.569910,-1.209455,100300.0000
1764076135195923031,2025-11-25 18:38:55.193,0.688722,2.467352,295.026527,0.036397,0.003832,0.977760,0.305080,0.183763,9.753872,0.001738,0.003397,-0.058790,0.501230,-0.570410,-1.211947,100302.0000
1764076135295982864,2025-11-25 18:38:55.293,0.688318,2.498366,295.388260,0.038190,0.005000,0.977956,0.555111,-0.302642,9.740369,-0.003343,-0.010556,-0.057330,0.502201,-0.569441,-1.211495,100307.0000
1764076135396488864,2025-11-25 18:38:55.393,0.679694,2.562623,295.743591,0.041955,0.004229,0.978238,0.256564,0.151737,9.737392,-0.001738,-0.014104,-0.068780,0.506085,-0.563203,-1.211165,100310.0000
1764076135495283179,2025-11-25 18:38:55.492,0.663625,2.608933,296.095444,0.047763,0.003832,0.977938,0.501530,-0.241235,9.683207,-0.008407,-0.001473,-0.049504,0.510402,-0.561335,-1.214147,100305.0000
1764076135595491105,2025-11-25 18:38:55.593,0.648735,2.599487,296.417583,0.046096,0.004375,0.975612,0.277875,0.137280,9.679189,-0.006183,0.002540,-0.064003,0.514286,-0.560280,-1.210367,100301.0000
1764076135695923031,2025-11-25 18:38:55.693,0.639636,2.546218,296.695335,0.044897,0.002897,0.977497,0.678451,-0.210075,9.858754,-0.002527,0.013104,-0.042019,0.516193,-0.559377,-1.213299,100306.0000
1764076135795964494,2025-11-25 18:38:55.793,0.640360,2.487102,296.963543,0.040155,0.004684,0.977775,0.169791,0.211375,9.636772,0.000988,0.010194,-0.050766,0.519543,-0.559881,-1.215267,100295.0000
1764076135895552716,2025-11-25 18:38:55.893,0.645759,2.474399,297.230793,0.035886,0.003737,0.977405,0.193410,-0.136099,9.568599,0.000894,-0.007709,-0.037418,0.524419,-0.555448,-1.210109,100303.0000
1764076135996082938,2025-11-25 18:38:55.993,0.653032,2.523152,297.485970,0.039455,0.003818,0.977660,0.161956,0.052804,9.596496,-0.005023,-0.014805,-0.043433,0.527285,-0.554073,-1.213543,100304.0000
1764076136095533012,2025-11-25 18:38:56.093,0.667801,2.599530,297.732975,0.045264,0.006630,0.978299,0.728860,0.055256,9.789490,0.004251,-0.015462,-0.048662,0.531152,-0.552125,-1.212666,100303.0000
1764076136197547753,2025-11-25 18:38:56.193,0.678371,2.682219,297.988789,0.047886,0.006871,0.978022,0.596274,0.186192,9.838413,-0.000992,-0.012510,-0.047862,0.530658,-0.555461,-1.212127,100305.0000
1764076136296192419,2025-11-25 18:38:56.293,0.680671,2.726815,298.258957,0.050446,0.007256,0.977488,0.750488,0.173088,9.763883,0.001489,-0.000156,-0.043184,0.534485,-0.552201,-1.217049,100302.0000
1764076136396561567,2025-11-25 18:38:56.393,0.675148,2.709507,298.530994,0.047980,0.004737,0.977381,0.564346,0.055771,9.726625,-0.002376,0.002594,-0.035819,0.538387,-0.547803,-1.213320,100306.0000
1764076136496314901,2025-11-25 18:38:56.493,0.658723,2.678459,298.766491,0.048696,0.005983,0.977615,0.406771,0.229083,9.802250,0.000152,0.004873,-0.044115,0.540300,-0.547825,-1.214793,100300.0000
1764076136596174326,2025-11-25 18:38:56.593,0.652531,2.647583,298.970249,0.045669,0.004297,0.977297,0.447188,0.080948,9.950606,0.004105,0.009650,-0.034428,0.540793,-0.545435,-1.214837,100304.0000
1764076136695941845,2025-11-25 18:38:56.693,0.666229,2.644693,299.170212,0.041951,0.005571,0.976088,0.212835,-0.233882,9.592264,0.002976,-0.004357,-0.030760,0.544677,-0.542968,-1.212042,100304.0000
1764076136795965623,2025-11-25 18:38:56.793,0.682213,2.666926,299.375465,0.044632,0.008347,0.976851,0.555184,-0.072418,9.770202,0.000828,-0.004133,-0.047328,0.546096,-0.542555,-1.215441,100302.0000
1764076136896467789,2025-11-25 18:38:56.893,0.690537,2.703572,299.573406,0.043756,0.006317,0.978260,0.537644,0.212042,9.914717,0.003625,-0.006091,-0.020041,0.547072,-0.540630,-1.215002,100306.0000
1764076136995366937,2025-11-25 18:38:56.993,0.696711,2.744928,299.745361,0.046497,0.007434,0.978461,0.524562,0.103867,9.818905,-0.003726,-0.007864,-0.042553,0.549964,-0.539662,-1.215060,100303.0000
1764076137095586104,2025-11-25 18:38:57.093,0.706064,2.773780,299.892128,0.049387,0.007489,0.978037,0.419521,0.017619,9.682027,0.003327,-0.005831,-0.007610,0.553355,-0.538640,-1.212718,100295.0000
1764076137197164252,2025-11-25 18:38:57.193,0.708098,2.766448,300.039707,0.050593,0.010434,0.978293,0.568883,0.372486,9.844407,-0.006672,0.003863,-0.027960,0.553352,-0.538650,-1.213199,100299.0000
1764076137295935419,2025-11-25 18:38:57.293,0.701961,2.746430,300.192554,0.047597,0.008008,0.975192,0.535351,-0.077463,9.732108,0.003024,-0.004464,-0.021705,0.555292,-0.536243,-1.212782,100300.0000
1764076137395893715,2025-11-25 18:38:57.393,0.698271,2.745168,300.330784,0.046451,0.009125,0.976032,0.639508,0.216497,9.720742,0.001792,-0.004307,-0.022350,0.556724,-0.536267,-1.214248,100303.0000
1764076137495516678,2025-11-25 18:38:57.493,0.700419,2.739752,300.449104,0.045967,0.007823,0.978309,0.502659,0.342781,9.728798,0.005677,0.005355,-0.011857,0.559604,-0.535329,-1.215749,100309.0000
1764076137595922696,2025-11-25 18:38:57.593,0.716610,2.760067,300.546036,0.045187,0.006690,0.980378,0.344007,-0.209218,9.753119,0.005314,0.006226,-0.016551,0.561038,-0.537233,-1.215742,100302.0000
1764076137695889196,2025-11-25 18:38:57.693,0.735635,2.788658,300.622562,0.046386,0.011622,0.978700,0.365990,0.240658,9.737839,0.010965,0.000826,-0.005113,0.561075,-0.532894,-1.213882,100303.0000
1764076137796189474,2025-11-25 18:38:57.793,0.746244,2.807962,300.699738,0.049491,0.012247,0.976803,0.450600,-0.025742,9.743963,0.003291,-0.006406,-0.016107,0.561065,-0.533392,-1.214837,100306.0000
1764076137896238418,2025-11-25 18:38:57.893,0.723059,2.837287,300.749016,0.050347,0.014343,0.974751,0.477333,0.341369,9.598876,0.001159,-0.009059,-0.009069,0.558174,-0.533415,-1.215276,100310.0000
1764076137995351140,2025-11-25 18:38:57.993,0.685739,2.829288,300.788612,0.050931,0.011352,0.976150,0.182640,0.135649,9.591970,-0.008100,-0.002875,-0.017773,0.560079,-0.534402,-1.217215,100303.0000
1764076138096585270,2025-11-25 18:38:58.093,0.660200,2.798179,300.822716,0.050782,0.007402,0.978232,0.462877,0.151006,9.775517,-0.001245,0.006137,-0.001092,0.560568,-0.534380,-1.216259,100300.0000
1764076138196434085,2025-11-25 18:38:58.193,0.653811,2.764583,300.849865,0.048054,0.008542,0.978136,0.609500,0.158168,9.810045,-0.005672,0.006579,-0.013286,0.562028,-0.532442,-1.215347,100296.0000
1764076138296505474,2025-11-25 18:38:58.293,0.661348,2.763936,300.986843,0.044560,0.011578,0.978152,0.426786,0.560421,9.599448,0.001082,-0.000871,-0.035342,0.563478,-0.533361,-1.213910,100299.0000
1764076138396357696,2025-11-25 18:38:58.393,0.645961,2.853813,301.389851,0.042398,0.009127,0.975944,-0.215833,-0.068493,9.510295,-0.003897,-0.039169,-0.104476,0.565399,-0.529592,-1.216885,100307.0000
1764076138495539307,2025-11-25 18:38:58.493,0.606244,3.063774,302.085342,0.058414,0.004193,0.975522,1.557225,0.284652,9.737696,-0.013533,-0.050854,-0.139616,0.572618,-0.523899,-1.220450,100301.0000
1764076138596140214,2025-11-25 18:38:58.593,0.524741,3.308964,303.020645,0.063609,-0.001995,0.976162,-0.134694,-0.698597,10.194213,-0.032223,-0.046258,-0.183590,0.580340,-0.516729,-1.222117,100300.0000
1764076138696422047,2025-11-25 18:38:58.693,0.458311,3.449508,304.018368,0.072213,-0.015982,0.975131,1.024093,-0.370997,9.491751,-0.010566,-0.025975,-0.167705,0.589033,-0.507178,-1.224317,100306.0000
1764076138796154603,2025-11-25 18:38:58.793,0.437989,3.406491,304.953365,0.076644,-0.021873,0.980343,0.357104,0.192269,9.795540,-0.004399,0.031104,-0.157474,0.601093,-0.501859,-1.224094,100300.0000
1764076138896162566,2025-11-25 18:38:58.893,0.477861,3.186832,305.819828,0.064904,-0.016781,0.978804,0.149893,-0.550410,9.514366,0.000739,0.052667,-0.146684,0.610769,-0.491774,-1.223909,100302.0000
1764076138995309362,2025-11-25 18:38:58.993,0.553653,2.903392,306.659073,0.048778,-0.015894,0.978956,1.331085,0.057023,10.021179,0.014282,0.045872,-0.129524,0.618499,-0.489300,-1.221653,100303.0000
1764076139095558640,2025-11-25 18:38:59.092,0.625308,2.691877,307.488804,0.037673,-0.004792,0.980416,0.426319,-0.121706,10.146607,0.001058,0.038463,-0.157376,0.630584,-0.481085,-1.220029,100302.0000
1764076139196652529,2025-11-25 18:38:59.193,0.669202,2.640780,308.301022,0.023177,-0.006325,0.972102,-0.256848,0.125105,9.215335,0.001835,-0.013919,-0.127593,0.640721,-0.478123,-1.217816,100298.0000
1764076139296179362,2025-11-25 18:38:59.293,0.671344,2.764470,309.097675,0.029712,0.002650,0.976161,-0.081664,0.233260,9.829877,-0.015013,-0.039497,-0.142094,0.646993,-0.470980,-1.220425,100299.0000
1764076139395609880,2025-11-25 18:38:59.393,0.652832,2.935277,309.895283,0.048835,-0.007871,0.977799,1.081994,-0.535165,9.892730,-0.002129,-0.024313,-0.132017,0.652810,-0.459998,-1.222123,100306.0000
1764076139495746528,2025-11-25 18:38:59.493,0.642513,3.026528,310.656548,0.058468,-0.004733,0.979328,1.035178,-0.017222,9.876886,-0.006914,0.002249,-0.127086,0.660037,-0.455697,-1.223740,100302.0000
1764076139595555473,2025-11-25 18:38:59.593,0.645371,3.009197,311.386021,0.055701,-0.004276,0.977136,-0.098122,-0.298557,9.448644,-0.004893,0.019307,-0.127298,0.666822,-0.447526,-1.223001,100303.0000
1764076139696153769,2025-11-25 18:38:59.693,0.658795,2.911282,312.063545,0.053708,-0.005432,0.979354,0.448624,0.275143,9.728807,-0.004801,0.017801,-0.108660,0.671644,-0.444648,-1.223597,100304.0000
1764076139795580417,2025-11-25 18:38:59.793,0.668378,2.751530,312.681904,0.048440,-0.003033,0.979722,0.527787,0.409805,9.868054,0.002429,0.028109,-0.106724,0.683712,-0.437419,-1.223404,100303.0000
1764076139896917306,2025-11-25 18:38:59.893,0.672044,2.602403,313.237499,0.039626,-0.000399,0.977167,0.331814,0.567822,9.682533,-0.001542,0.020727,-0.094788,0.690021,-0.431120,-1.220703,100304.0000
1764076139996366713,2025-11-25 18:38:59.993,0.652696,2.525293,313.750698,0.035848,0.000690,0.977441,0.308476,-0.078573,9.590073,-0.005615,0.002462,-0.093114,0.692424,-0.430174,-1.221716,100308.0000
1764076140096216713,2025-11-25 18:39:00.093,0.622194,2.537954,314.233086,0.035454,-0.001280,0.976549,0.177233,-0.306600,9.633126,-0.011085,-0.015598,-0.077952,0.699684,-0.422489,-1.221458,100306.0000
1764076140196768658,2025-11-25 18:39:00.193,0.592634,2.598825,314.682762,0.045561,0.002429,0.976560,0.639958,-0.177312,9.789264,-0.008851,-0.011903,-0.083316,0.701143,-0.417726,-1.222516,100298.0000
1764076140296197602,2025-11-25 18:39:00.293,0.568384,2.665444,315.109646,0.044437,0.000032,0.975800,0.358143,-0.079486,9.625817,-0.014121,-0.008511,-0.071289,0.704514,-0.414876,-1.224054,100302.0000
1764076140396103695,2025-11-25 18:39:00.393,0.563944,2.705664,315.513927,0.048294,-0.001403,0.978383,0.157990,-0.195078,9.604092,0.001798,0.007096,-0.072432,0.708849,-0.411543,-1.225613,100303.0000
1764076140496116880,2025-11-25 18:39:00.493,0.577944,2.694302,315.914356,0.044722,0.000045,0.977230,0.302247,0.199492,9.808315,0.001114,-0.004156,-0.075229,0.711287,-0.406735,-1.224759,100304.0000
1764076140595938861,2025-11-25 18:39:00.593,0.607506,2.687610,316.297832,0.044981,0.000774,0.977859,0.351125,0.134928,9.819780,0.001962,-0.004079,-0.064845,0.715175,-0.400487,-1.223948,100298.0000
1764076140695740435,2025-11-25 18:39:00.693,0.633951,2.657215,316.657925,0.047945,0.003600,0.980154,0.764317,0.427029,9.737873,-0.002879,0.004098,-0.063786,0.719023,-0.400003,-1.224494,100308.0000
1764076140795509398,2025-11-25 18:39:00.793,0.640551,2.603543,316.998283,0.045090,0.004215,0.977575,0.615705,-0.273621,9.657139,-0.001579,0.003443,-0.057359,0.722899,-0.396143,-1.223647,100297.0000
1764076140895459083,2025-11-25 18:39:00.893,0.635796,2.575050,317.314610,0.042281,0.004653,0.977139,0.282699,-0.130319,9.814864,-0.002896,0.003008,-0.055377,0.727255,-0.393227,-1.222311,100310.0000
1764076140996103953,2025-11-25 18:39:00.993,0.626727,2.615590,317.617977,0.039047,0.005085,0.975221,0.140754,0.180432,9.512577,-0.008984,-0.007447,-0.055751,0.728720,-0.388922,-1.222398,100303.0000
1764076141095844750,2025-11-25 18:39:01.093,0.623521,2.704669,317.913544,0.037810,0.002997,0.975893,0.137779,-0.009038,9.692476,-0.000660,-0.014934,-0.045623,0.730629,-0.386596,-1.225833,100304.0000
1764076141195724861,2025-11-25 18:39:01.193,0.626192,2.807077,318.176056,0.044300,0.004324,0.976058,0.420520,-0.088404,9.710752,0.003563,-0.026658,-0.048938,0.731597,-0.384691,-1.226358,100305.0000
1764076141296000268,2025-11-25 18:39:01.293,0.644170,2.881792,318.388706,0.052401,0.004737,0.979432,0.909075,0.240403,9.860153,0.006574,-0.010125,-0.033833,0.730634,-0.384228,-1.226832,100303.0000
1764076141396184935,2025-11-25 18:39:01.393,0.669039,2.877125,318.559803,0.053229,0.006359,0.979748,0.613022,-0.025249,9.805987,0.006874,0.006684,-0.025326,0.731623,-0.378024,-1.227423,100302.0000
1764076141495285564,2025-11-25 18:39:01.492,0.688750,2.824497,318.703362,0.051070,0.007100,0.978380,0.486998,0.175169,9.804233,0.001860,0.014215,-0.013518,0.733564,-0.380800,-1.223556,100305.0000
1764076141595901046,2025-11-25 18:39:01.593,0.684036,2.756433,318.830822,0.046971,0.009767,0.977151,0.547151,-0.124472,9.723119,-0.002251,0.011526,-0.019372,0.735983,-0.378868,-1.223140,100304.0000
1764076141695891009,2025-11-25 18:39:01.693,0.659010,2.713689,318.928749,0.043584,0.008823,0.977433,0.629159,-0.150711,10.068834,-0.006079,0.000742,-0.020624,0.737421,-0.378405,-1.224131,100307.0000
1764076141795520731,2025-11-25 18:39:01.793,0.644431,2.723662,319.004986,0.042512,0.008494,0.976665,0.208449,0.268773,9.693534,0.001522,-0.001553,-0.004136,0.735967,-0.377497,-1.226050,100304.0000
1764076141896964249,2025-11-25 18:39:01.893,0.636015,2.780131,319.078636,0.042700,0.007497,0.976831,0.313769,-0.314674,9.702330,-0.004458,-0.013353,-0.014033,0.739365,-0.374575,-1.224218,100305.0000
1764076141995579212,2025-11-25 18:39:01.992,0.639080,2.872827,319.148045,0.046453,0.009039,0.976473,0.539869,0.313010,9.739147,0.001100,-0.021397,-0.020399,0.738389,-0.375087,-1.225641,100301.0000
1764076142095947749,2025-11-25 18:39:02.093,0.645308,2.949529,319.205544,0.053698,0.009351,0.977759,0.738104,0.441982,9.857144,-0.001039,-0.015232,-0.011211,0.739834,-0.373190,-1.226654,100304.0000
1764076142196202508,2025-11-25 18:39:02.193,0.642703,2.964072,319.243607,0.054756,0.010374,0.976466,0.490513,0.254811,9.628418,-0.000869,-0.003425,0.000646,0.738391,-0.374609,-1.225648,100306.0000
1764076142295968379,2025-11-25 18:39:02.293,0.618396,2.925428,319.269085,0.054081,0.011118,0.978018,0.616126,0.078306,9.950676,-0.005947,0.010215,0.002802,0.736944,-0.373681,-1.226604,100302.0000
1764076142395959786,2025-11-25 18:39:02.393,0.594387,2.872753,319.286785,0.049477,0.007156,0.977828,0.435392,-0.141319,9.806352,0.000636,0.007942,-0.006276,0.738869,-0.373672,-1.226633,100306.0000
1764076142495735897,2025-11-25 18:39:02.493,0.589901,2.835225,319.295582,0.049068,0.008629,0.978650,0.363050,0.348547,9.776917,0.007723,0.008099,0.003721,0.738868,-0.374617,-1.226137,100300.0000
1764076142596195119,2025-11-25 18:39:02.593,0.605213,2.841235,319.322826,0.045206,0.008899,0.977415,0.424522,-0.010600,9.619655,0.004419,-0.001460,-0.002036,0.739355,-0.372715,-1.226655,100307.0000
1764076142696628508,2025-11-25 18:39:02.693,0.630926,2.885336,319.338055,0.046489,0.009906,0.976831,0.346926,0.193437,9.801397,0.009817,-0.011446,-0.000616,0.742708,-0.374153,-1.227645,100300.0000
1764076142795990045,2025-11-25 18:39:02.793,0.644549,2.906995,319.339920,0.050431,0.011481,0.976863,0.535801,-0.132068,9.820102,-0.001308,-0.006023,0.001188,0.738382,-0.373217,-1.227596,100301.0000
1764076142896061286,2025-11-25 18:39:02.893,0.645556,2.909051,319.350574,0.051941,0.012684,0.977247,0.723886,-0.172307,9.993864,0.001089,-0.000768,0.000277,0.741287,-0.373631,-1.225224,100300.0000
1764076142995325193,2025-11-25 18:39:02.992,0.638399,2.884932,319.386539,0.046536,0.013304,0.977082,0.366719,0.048805,9.847447,-0.008169,-0.000062,-0.012845,0.741281,-0.373174,-1.226194,100301.0000
1764076143095757360,2025-11-25 18:39:03.092,0.633267,2.875851,319.453270,0.047453,0.009857,0.978523,0.429425,0.051785,9.934457,0.001611,-0.001481,-0.009697,0.741286,-0.372218,-1.226209,100300.0000
1764076143195785582,2025-11-25 18:39:03.192,0.637580,2.902758,319.520073,0.050018,0.006588,0.979188,0.382791,-0.028522,9.774141,0.002156,0.001514,-0.004772,0.740326,-0.373158,-1.225217,100304.0000
1764076143295603600,2025-11-25 18:39:03.293,0.650725,2.928834,319.573753,0.049856,0.009739,0.976292,0.144239,0.227746,9.626042,0.008289,-0.000828,-0.015691,0.740805,-0.372220,-1.226202,100306.0000
1764076143396321433,2025-11-25 18:39:03.393,0.663266,2.943317,319.603821,0.051796,0.010757,0.976605,0.424376,-0.097647,9.710594,0.007014,-0.005153,-0.006020,0.740818,-0.370299,-1.225750,100302.0000
1764076143496049100,2025-11-25 18:39:03.493,0.666562,2.919406,319.619907,0.049590,0.012075,0.976370,0.379151,0.066755,9.731729,-0.002068,0.004625,-0.009006,0.740303,-0.373219,-1.228105,100308.0000
1764076143596518433,2025-11-25 18:39:03.593,0.644741,2.890336,319.627728,0.047232,0.010623,0.976415,0.431238,-0.168563,9.724767,0.002281,0.003810,0.007821,0.743202,-0.370817,-1.228185,100304.0000
1764076143696059359,2025-11-25 18:39:03.693,0.613066,2.898168,319.634968,0.045789,0.010262,0.976379,0.416118,0.253030,9.811248,-0.005072,-0.007830,0.003657,0.742228,-0.370852,-1.229615,100300.0000
1764076143796778952,2025-11-25 18:39:03.793,0.594504,2.922338,319.623569,0.049599,0.007788,0.979107,0.405516,-0.083988,9.770979,0.000672,-0.003236,0.012716,0.742240,-0.370821,-1.228171,100301.0000
1764076143896538655,2025-11-25 18:39:03.893,0.610747,2.932145,319.577793,0.051067,0.009157,0.979468,0.154694,0.273928,9.680667,0.002370,-0.002789,0.011464,0.741770,-0.369380,-1.227704,100304.0000
1764076143995951266,2025-11-25 18:39:03.993,0.638564,2.901956,319.530655,0.052061,0.011976,0.977949,0.325096,0.336836,9.719545,0.011633,0.009928,0.014216,0.742248,-0.370801,-1.227208,100304.0000
1764076144095726174,2025-11-25 18:39:04.093,0.635873,2.852720,319.508789,0.046919,0.016075,0.976451,0.427532,0.013137,9.755699,-0.003919,0.004292,0.003717,0.742243,-0.373169,-1.226208,100302.0000
1764076144196683266,2025-11-25 18:39:04.193,0.599897,2.814502,319.500893,0.044496,0.012915,0.976070,0.442319,0.178207,9.664910,-0.000262,0.002267,0.008870,0.743210,-0.373155,-1.225741,100304.0000
1764076144295528026,2025-11-25 18:39:04.293,0.566446,2.809096,319.483860,0.044091,0.007354,0.976482,0.366800,0.185585,9.762670,0.002020,-0.005048,0.003702,0.740321,-0.371288,-1.227172,100300.0000
1764076144395782563,2025-11-25 18:39:04.393,0.560475,2.848683,319.453152,0.045319,0.007833,0.977858,0.704924,0.192898,9.808865,0.005995,-0.011738,0.005515,0.742244,-0.370811,-1.227690,100302.0000
1764076144496166655,2025-11-25 18:39:04.493,0.581494,2.908490,319.424976,0.047193,0.009128,0.978021,0.703598,0.017707,9.990423,0.003182,-0.007087,0.006250,0.739816,-0.373709,-1.228573,100304.0000
1764076144596129340,2025-11-25 18:39:04.593,0.626101,2.981613,319.409908,0.050199,0.009726,0.978522,0.562735,0.142408,9.813566,0.017262,-0.010593,0.008212,0.738384,-0.371327,-1.228588,100305.0000
1764076144695827562,2025-11-25 18:39:04.693,0.659900,3.013459,319.375740,0.056353,0.011910,0.979126,0.406419,0.183316,9.921665,-0.003245,-0.002739,-0.000035,0.739830,-0.375558,-1.225655,100296.0000
1764076144795331451,2025-11-25 18:39:04.793,0.660350,2.962399,319.304573,0.054177,0.013654,0.977533,0.375663,0.217736,9.791088,-0.005134,0.007519,0.019676,0.737421,-0.374634,-1.226597,100304.0000
1764076144896185636,2025-11-25 18:39:04.893,0.618851,2.865905,319.234447,0.051444,0.012835,0.976874,0.708337,0.245407,10.028859,-0.005403,0.019969,0.008857,0.741289,-0.374566,-1.224247,100302.0000
1764076144995576377,2025-11-25 18:39:04.993,0.580952,2.794406,319.172741,0.044588,0.009751,0.975190,0.652991,0.297320,9.794532,-0.004923,0.007062,0.011173,0.738884,-0.374577,-1.224211,100304.0000
1764076145095485821,2025-11-25 18:39:05.093,0.572356,2.781724,319.141529,0.040609,0.008476,0.976370,0.858779,0.196093,9.945820,-0.001701,-0.002019,0.010300,0.738380,-0.377465,-1.225123,100301.0000
1764076145196178340,2025-11-25 18:39:05.193,0.601543,2.830759,319.126732,0.045552,0.008516,0.979611,0.657441,0.497876,9.816403,0.013415,-0.004061,0.007990,0.739345,-0.375571,-1.226129,100315.0000
1764076145295857581,2025-11-25 18:39:05.293,0.640821,2.877032,319.093651,0.048369,0.010825,0.979696,0.620520,0.191114,9.946335,-0.000704,0.005682,0.000779,0.737903,-0.376045,-1.225619,100310.0000
1764076145396085395,2025-11-25 18:39:05.393,0.657877,2.889145,319.052345,0.047708,0.013538,0.976076,0.663694,0.370280,9.825071,-0.001094,-0.001493,0.011821,0.738370,-0.376551,-1.227063,100303.0000
1764076145495350654,2025-11-25 18:39:05.492,0.652095,2.872210,319.004829,0.047019,0.012775,0.975262,0.774787,0.200309,10.013581,-0.004374,0.006668,0.016290,0.737896,-0.377478,-1.225597,100297.0000
1764076145595877747,2025-11-25 18:39:05.593,0.636784,2.852032,318.941006,0.045531,0.012968,0.976863,0.603582,0.440697,9.884763,-0.003233,-0.000299,0.006460,0.737418,-0.377470,-1.225109,100306.0000
1764076145696081728,2025-11-25 18:39:05.693,0.619341,2.831221,318.863964,0.047184,0.010662,0.977494,0.554910,0.047859,9.731940,-0.006507,0.001996,0.018780,0.736925,-0.377502,-1.226546,100303.0000
1764076145795848265,2025-11-25 18:39:05.793,0.615085,2.826324,318.795128,0.046681,0.010888,0.978402,0.393933,0.360164,9.639861,0.001484,-0.003692,0.010815,0.737386,-0.379441,-1.227968,100304.0000
1764076145896575117,2025-11-25 18:39:05.893,0.620757,2.825923,318.730053,0.047022,0.011259,0.978626,0.625045,0.125728,10.012072,0.003589,-0.002281,0.011757,0.734975,-0.380408,-1.227917,100300.0000
1764076145996246339,2025-11-25 18:39:05.993,0.634320,2.824854,318.652779,0.046146,0.011623,0.977245,0.470303,0.197037,9.856387,0.004263,-0.002205,0.023015,0.732580,-0.381333,-1.225942,100300.0000
1764076146095397876,2025-11-25 18:39:06.092,0.638416,2.827357,318.593330,0.045964,0.014759,0.976311,0.085105,0.253375,9.543928,-0.001996,-0.003248,0.005960,0.733998,-0.381866,-1.228844,100307.0000
1764076146195640580,2025-11-25 18:39:06.193,0.630841,2.842032,318.556187,0.044225,0.011716,0.976528,0.216472,0.451177,9.686969,0.005825,-0.006635,0.008438,0.730159,-0.382797,-1.226847,100308.0000
1764076146295665450,2025-11-25 18:39:06.293,0.617653,2.880688,318.539043,0.050400,0.011908,0.978766,0.822135,-0.076962,10.034136,0.002011,-0.005706,0.006206,0.734497,-0.381345,-1.226933,100297.0000
1764076146396110450,2025-11-25 18:39:06.393,0.614806,2.890631,318.551437,0.051584,0.011688,0.977232,0.666411,0.178336,9.901979,0.000233,-0.000167,-0.004127,0.733534,-0.379936,-1.227904,100306.0000
1764076146496087283,2025-11-25 18:39:06.493,0.610777,2.859570,318.588379,0.048891,0.010147,0.976389,0.244026,0.240637,9.695940,-0.000889,0.009503,-0.014342,0.733535,-0.381349,-1.226919,100299.0000
1764076146595519395,2025-11-25 18:39:06.593,0.604484,2.814852,318.639107,0.047886,0.008247,0.976594,0.635484,0.002342,9.807192,0.001914,0.005380,-0.006311,0.733543,-0.380384,-1.226452,100304.0000
1764076146695506209,2025-11-25 18:39:06.693,0.601620,2.768671,318.680084,0.043030,0.008686,0.978086,0.663092,-0.188504,9.876592,0.003906,0.006215,0.002088,0.734997,-0.379879,-1.225518,100302.0000
1764076146796012802,2025-11-25 18:39:06.793,0.604245,2.744960,318.717148,0.039283,0.010480,0.977283,0.244661,0.087844,9.753641,0.000403,-0.005245,-0.015747,0.736919,-0.380348,-1.225539,100304.0000
1764076146896324265,2025-11-25 18:39:06.893,0.612843,2.766200,318.751003,0.041535,0.009937,0.977857,0.355900,0.261800,9.569863,0.000404,-0.007895,-0.006158,0.736914,-0.381303,-1.225524,100303.0000
1764076146996457561,2025-11-25 18:39:06.993,0.610983,2.813915,318.779331,0.046140,0.009659,0.979082,0.600610,0.615871,9.635080,-0.000791,-0.003400,-0.004839,0.735481,-0.378454,-1.226028,100298.0000
1764076147095666691,2025-11-25 18:39:07.093,0.607150,2.841592,318.803223,0.050162,0.009410,0.979240,0.517818,0.051899,9.758725,0.003607,0.001071,-0.009219,0.735479,-0.378932,-1.226021,100298.0000
1764076147195696616,2025-11-25 18:39:07.193,0.606739,2.812640,318.842838,0.049757,0.009637,0.977884,0.376680,-0.103558,9.742345,0.000175,0.005077,-0.016031,0.735951,-0.382253,-1.225014,100296.0000
1764076147295336116,2025-11-25 18:39:07.292,0.620166,2.745852,318.890629,0.046554,0.008198,0.977257,0.644515,-0.210420,9.746826,0.005920,0.008576,-0.003333,0.736952,-0.378376,-1.222680,100310.0000
1764076147396215894,2025-11-25 18:39:07.393,0.640579,2.669185,318.926495,0.043256,0.010622,0.976977,0.532811,0.352196,9.835917,-0.001492,0.009566,-0.007969,0.739329,-0.380327,-1.225093,100303.0000
1764076147496117968,2025-11-25 18:39:07.493,0.668846,2.613252,318.933163,0.038204,0.009765,0.977172,0.421474,0.123078,9.720261,0.010252,0.005147,0.007794,0.741262,-0.380765,-1.223670,100301.0000
1764076147595339542,2025-11-25 18:39:07.593,0.691149,2.611657,318.938820,0.032897,0.013653,0.975009,0.536919,0.253440,9.816403,-0.001664,-0.010026,0.009310,0.741281,-0.379302,-1.222248,100301.0000
1764076147696151968,2025-11-25 18:39:07.693,0.692340,2.677840,318.952560,0.041212,0.013215,0.977440,0.382470,0.290534,9.737635,0.004957,-0.018696,0.003392,0.738851,-0.380319,-1.224604,100307.0000
1764076147796179523,2025-11-25 18:39:07.793,0.667927,2.754915,318.955944,0.043365,0.012027,0.977653,0.358645,-0.062966,9.812279,-0.009944,-0.018216,0.001470,0.736938,-0.376526,-1.225597,100302.0000
1764076147896593023,2025-11-25 18:39:07.893,0.633440,2.802860,318.930859,0.049117,0.011023,0.980160,0.617160,0.009568,9.971125,-0.008495,-0.009979,0.020826,0.737409,-0.377022,-1.226560,100305.0000
1764076147995402616,2025-11-25 18:39:07.993,0.608550,2.803949,318.899021,0.052768,0.009492,0.978874,0.525009,0.044711,9.946087,0.005015,0.008612,0.012816,0.735481,-0.378454,-1.226028,100306.0000
1764076148095891746,2025-11-25 18:39:08.093,0.615682,2.780942,318.878735,0.047269,0.009384,0.976249,0.474685,0.265226,9.716839,0.002857,0.006529,-0.004784,0.736920,-0.379403,-1.226035,100302.0000
1764076148198296042,2025-11-25 18:39:08.193,0.657005,2.764536,318.869923,0.046350,0.010771,0.974465,0.165378,0.219619,9.495021,0.014697,-0.001878,0.000893,0.736459,-0.380767,-1.222636,100304.0000
1764076148295944227,2025-11-25 18:39:08.293,0.683803,2.744969,318.880287,0.045897,0.014047,0.976988,0.214264,0.081355,9.637568,0.005470,0.002972,0.001164,0.735962,-0.380810,-1.224555,100299.0000
1764076148396140449,2025-11-25 18:39:08.393,0.692493,2.726235,318.915661,0.041554,0.013571,0.976926,0.462892,-0.085697,9.969257,0.005879,0.000362,-0.014208,0.738848,-0.377971,-1.226567,100300.0000
1764076148496407616,2025-11-25 18:39:08.493,0.687570,2.744640,318.961281,0.042298,0.013064,0.978993,0.633273,0.038371,9.850592,-0.001716,-0.005259,0.001593,0.738833,-0.379425,-1.227508,100305.0000
1764076148595674449,2025-11-25 18:39:08.593,0.679839,2.785929,319.014439,0.045560,0.011329,0.980034,0.496259,-0.035006,9.970995,-0.004510,-0.009057,-0.004912,0.737897,-0.375587,-1.226589,100304.0000
1764076148695754375,2025-11-25 18:39:08.693,0.676903,2.829159,319.086697,0.047381,0.011999,0.978082,0.500009,0.256098,9.655843,0.001618,-0.004491,-0.007360,0.735952,-0.377537,-1.227975,100304.0000
1764076148796293245,2025-11-25 18:39:08.793,0.674716,2.849386,319.186729,0.051946,0.011068,0.977395,0.212464,-0.028091,9.697617,0.001417,0.008525,-0.021640,0.736427,-0.377078,-1.228953,100297.0000
1764076148896217949,2025-11-25 18:39:08.893,0.672633,2.813987,319.277676,0.048785,0.010209,0.976827,-0.027268,0.053296,9.595187,0.005073,0.014907,-0.012841,0.737907,-0.376035,-1.225138,100306.0000
1764076148995958634,2025-11-25 18:39:08.993,0.675334,2.755453,319.388355,0.045005,0.009598,0.976989,0.181985,0.071922,9.659313,0.004489,0.002833,-0.017477,0.741771,-0.374564,-1.224254,100307.0000
1764076149095783282,2025-11-25 18:39:09.092,0.679632,2.714194,319.506634,0.042084,0.009727,0.977868,0.434511,-0.027216,9.880471,-0.000257,0.000351,-0.022731,0.741775,-0.373608,-1.224269,100302.0000
1764076149195960874,2025-11-25 18:39:09.193,0.682091,2.704129,319.607021,0.042418,0.009614,0.977790,0.284787,0.101133,9.849764,0.009695,-0.002904,-0.014266,0.743232,-0.371681,-1.223838,100299.0000
1764076149295304041,2025-11-25 18:39:09.293,0.679620,2.713452,319.708439,0.043678,0.011271,0.977213,0.540749,0.215146,9.766517,-0.007824,-0.005917,-0.016521,0.745165,-0.369294,-1.224384,100306.0000
1764076149396862634,2025-11-25 18:39:09.393,0.655593,2.749042,319.829685,0.046404,0.011469,0.977233,0.296202,0.292770,9.846433,-0.004242,-0.007554,-0.020733,0.743245,-0.368347,-1.224370,100306.0000
1764076149496286134,2025-11-25 18:39:09.493,0.625346,2.780286,319.956295,0.047906,0.006983,0.977793,0.812546,0.183908,10.011620,-0.009584,-0.001122,-0.019335,0.745164,-0.368827,-1.224873,100306.0000
1764076149595748856,2025-11-25 18:39:09.593,0.605590,2.778325,320.062904,0.046542,0.004905,0.977817,0.421069,-0.100969,9.845345,-0.001085,-0.000151,-0.013855,0.746143,-0.363121,-1.226419,100301.0000
1764076149696100800,2025-11-25 18:39:09.693,0.606339,2.751962,320.153809,0.047266,0.007293,0.977011,0.364799,-0.007225,9.789720,0.006194,0.002075,-0.012949,0.746627,-0.365466,-1.224464,100300.0000
1764076149795587356,2025-11-25 18:39:09.793,0.627112,2.694436,320.234638,0.048214,0.008869,0.977470,0.712169,0.102682,9.845262,0.007223,0.007746,-0.014981,0.749502,-0.366429,-1.225455,100309.0000
1764076149895317837,2025-11-25 18:39:09.892,0.653476,2.622273,320.305599,0.044048,0.009111,0.976899,0.596390,0.089474,9.960309,-0.003195,0.013398,-0.015209,0.749037,-0.365445,-1.224018,100311.0000
1764076149995549781,2025-11-25 18:39:09.993,0.679118,2.571960,320.384678,0.038512,0.010604,0.978333,0.417245,0.126860,9.823088,0.002222,0.006639,-0.012175,0.750004,-0.363073,-1.225032,100300.0000
1764076150095852318,2025-11-25 18:39:10.093,0.687902,2.564552,320.471081,0.036953,0.012083,0.978540,0.529483,0.241118,9.829159,0.001733,0.002227,-0.014089,0.753400,-0.363454,-1.221223,100303.0000
1764076150195823763,2025-11-25 18:39:10.193,0.684417,2.595209,320.540737,0.037114,0.010071,0.977646,0.280847,0.288388,9.556939,-0.001179,-0.005193,-0.003106,0.750488,-0.364006,-1.224061,100302.0000
1764076150295553207,2025-11-25 18:39:10.293,0.674809,2.642898,320.579556,0.039875,0.011744,0.977166,0.207637,0.211259,9.774228,-0.004469,-0.016843,-0.011742,0.752425,-0.360663,-1.224623,100298.0000
1764076150395998170,2025-11-25 18:39:10.393,0.654898,2.680471,320.621380,0.046266,0.010853,0.976721,0.772323,0.046183,9.810856,-0.004589,-0.017916,-0.010773,0.753379,-0.361625,-1.225104,100302.0000
1764076150496242096,2025-11-25 18:39:10.493,0.643470,2.681425,320.659210,0.049090,0.008222,0.977204,0.666661,-0.216575,9.728685,-0.003131,-0.000586,-0.009565,0.753384,-0.362082,-1.224134,100311.0000
1764076150596014929,2025-11-25 18:39:10.593,0.644734,2.643337,320.698128,0.045573,0.007468,0.977038,0.970909,-0.304237,10.025290,-0.002533,0.006097,-0.005620,0.753869,-0.360657,-1.224644,100297.0000
1764076150695535874,2025-11-25 18:39:10.693,0.668896,2.608634,320.721802,0.043449,0.009702,0.979009,0.769055,-0.078154,9.833084,0.006199,0.013374,0.001228,0.752914,-0.360641,-1.223667,100303.0000
1764076150795981059,2025-11-25 18:39:10.793,0.692098,2.624949,320.734749,0.037565,0.012036,0.976718,0.431242,0.265732,9.606289,-0.000635,0.005470,0.003258,0.753405,-0.356370,-1.225184,100300.0000
1764076150896248411,2025-11-25 18:39:10.893,0.705174,2.692477,320.764465,0.041175,0.012437,0.979056,0.308071,0.198535,9.688464,0.007199,-0.006132,0.001214,0.755788,-0.361604,-1.224658,100296.0000
1764076150995378892,2025-11-25 18:39:10.993,0.703673,2.747524,320.785110,0.047755,0.012931,0.977228,0.491248,-0.012360,9.705640,0.002981,-0.006367,0.001502,0.752421,-0.360674,-1.225104,100302.0000
1764076151095710188,2025-11-25 18:39:11.093,0.688857,2.759123,320.810238,0.051164,0.013192,0.976569,0.440727,0.239680,9.810193,0.001835,0.000690,-0.003698,0.753381,-0.359734,-1.226096,100298.0000
1764076151196119873,2025-11-25 18:39:11.193,0.674902,2.714778,320.840385,0.047255,0.009790,0.976623,0.571513,-0.025441,9.745595,0.003177,0.009553,-0.003078,0.752433,-0.360643,-1.223660,100311.0000
1764076151296030281,2025-11-25 18:39:11.293,0.670095,2.659246,320.866428,0.044382,0.011717,0.979079,0.437681,0.311585,9.839145,-0.001877,0.010214,-0.006682,0.753861,-0.360677,-1.225607,100304.0000
1764076151396244818,2025-11-25 18:39:11.393,0.662498,2.631684,320.904228,0.039822,0.010871,0.978157,0.184135,-0.091454,9.754472,-0.003241,-0.000607,-0.007689,0.755832,-0.358188,-1.221339,100298.0000
1764076151495874947,2025-11-25 18:39:11.493,0.657029,2.669947,320.964348,0.040975,0.010993,0.977881,0.584640,0.130792,9.912442,-0.007021,-0.012473,-0.015524,0.756774,-0.357768,-1.224249,100307.0000
1764076151595802373,2025-11-25 18:39:11.593,0.650988,2.757735,321.031940,0.043248,0.009028,0.977022,0.456758,-0.091492,9.793489,-0.000230,-0.018885,-0.001262,0.754829,-0.358773,-1.226132,100302.0000
1764076151696390317,2025-11-25 18:39:11.693,0.654199,2.843577,321.097252,0.051571,0.008682,0.978455,0.267624,0.043504,9.594346,-0.003854,-0.006405,-0.008797,0.754346,-0.358307,-1.226613,100305.0000
1764076151796185225,2025-11-25 18:39:11.793,0.661308,2.864780,321.165710,0.053664,0.009509,0.977123,0.062603,0.225609,9.495217,0.005144,0.002434,-0.014008,0.754834,-0.355459,-1.227627,100294.0000
1764076151895292188,2025-11-25 18:39:11.892,0.672583,2.795692,321.232857,0.053163,0.008654,0.977030,0.250504,0.071312,9.648728,0.004260,0.020153,-0.015725,0.756273,-0.356408,-1.227634,100306.0000
1764076151995872317,2025-11-25 18:39:11.993,0.682670,2.683104,321.298271,0.045504,0.010231,0.977090,0.256292,0.336746,9.820174,-0.006235,0.017370,-0.009560,0.756815,-0.353418,-1.221908,100304.0000
1764076152095687373,2025-11-25 18:39:12.092,0.678822,2.596746,321.373775,0.038324,0.009618,0.976726,0.386855,0.036514,9.748617,0.003739,0.003328,-0.013604,0.756806,-0.354383,-1.222375,100300.0000
1764076152196843280,2025-11-25 18:39:12.193,0.662254,2.596749,321.429489,0.035893,0.010413,0.976664,0.278319,0.215473,9.722591,-0.005643,-0.010657,-0.000348,0.760153,-0.353952,-1.225320,100306.0000
1764076152295536910,2025-11-25 18:39:12.293,0.635298,2.666382,321.493423,0.039864,0.011422,0.977440,0.421858,0.025965,9.903292,-0.003059,-0.022193,-0.013509,0.762572,-0.352020,-1.224904,100304.0000
1764076152395890650,2025-11-25 18:39:12.393,0.621176,2.744435,321.547684,0.046767,0.006712,0.978679,0.505247,-0.017547,9.829839,-0.003720,-0.014475,0.002693,0.759195,-0.353946,-1.224825,100299.0000
1764076152496526706,2025-11-25 18:39:12.493,0.613121,2.772942,321.598389,0.051270,0.009109,0.978151,0.696097,0.115930,9.764559,-0.000929,0.000794,-0.004972,0.760628,-0.352079,-1.227282,100308.0000
1764076152595767854,2025-11-25 18:39:12.593,0.600998,2.743260,321.658466,0.048050,0.008966,0.977237,0.642753,0.170217,9.548882,-0.003508,0.004507,-0.004213,0.760173,-0.347772,-1.226859,100299.0000
1764076152695343613,2025-11-25 18:39:12.693,0.595623,2.691954,321.732090,0.043695,0.006366,0.976613,0.317099,0.055894,9.739972,0.008271,0.004164,-0.013337,0.760654,-0.351541,-1.224401,100298.0000
1764076152795349150,2025-11-25 18:39:12.793,0.601436,2.672112,321.777973,0.045295,0.005999,0.978378,0.776377,0.276418,9.979452,0.000166,-0.002520,-0.002935,0.763055,-0.350127,-1.225903,100299.0000
1764076152895689557,2025-11-25 18:39:12.893,0.620073,2.636092,321.786915,0.044820,0.006936,0.978786,0.541329,0.075890,9.832754,0.006652,0.005131,-0.000276,0.762575,-0.349184,-1.226392,100305.0000
1764076152995822687,2025-11-25 18:39:12.993,0.649036,2.608506,321.788300,0.041481,0.010134,0.978490,0.456977,0.219037,9.781750,0.005664,0.007835,0.002498,0.762573,-0.351075,-1.225400,100303.0000
1764076153095784280,2025-11-25 18:39:13.093,0.663949,2.579717,321.796158,0.041674,0.011751,0.977936,0.154282,0.131281,9.727703,0.000412,0.007884,0.007715,0.761627,-0.350093,-1.223956,100301.0000
1764076153196914168,2025-11-25 18:39:13.193,0.666536,2.562250,321.784389,0.038336,0.010738,0.977113,0.336407,0.050830,9.710891,0.005796,0.002337,0.014314,0.762102,-0.352937,-1.222957,100302.0000
1764076153295713965,2025-11-25 18:39:13.293,0.656993,2.571608,321.749363,0.041152,0.012267,0.975995,0.420181,-0.074500,9.728391,-0.005379,-0.011539,0.009284,0.763061,-0.351997,-1.223948,100304.0000
1764076153396278779,2025-11-25 18:39:13.393,0.633849,2.585439,321.721905,0.043407,0.011658,0.977759,0.311360,0.265570,9.802787,-0.004846,-0.003110,0.000177,0.759690,-0.349665,-1.225861,100302.0000
1764076153496747557,2025-11-25 18:39:13.493,0.602380,2.589461,321.690208,0.045221,0.008391,0.976978,0.419242,0.310272,9.660592,0.002667,-0.001072,0.010209,0.762568,-0.350617,-1.226370,100308.0000
1764076153595537761,2025-11-25 18:39:13.593,0.595127,2.594080,321.625751,0.043039,0.006711,0.976703,0.169840,0.036704,9.583128,0.005033,-0.001538,0.015327,0.760181,-0.350577,-1.223927,100303.0000
1764076153695686927,2025-11-25 18:39:13.693,0.624676,2.609227,321.542309,0.039831,0.007458,0.977812,0.268310,-0.420495,9.917079,0.009628,-0.005274,0.020639,0.760628,-0.354437,-1.225802,100298.0000
1764076153796007742,2025-11-25 18:39:13.793,0.664774,2.636242,321.461761,0.044639,0.012895,0.978226,0.660761,0.477171,9.977987,0.007362,-0.010188,0.009013,0.759667,-0.354909,-1.225299,100302.0000
1764076153896061724,2025-11-25 18:39:13.893,0.678207,2.652253,321.386059,0.046924,0.013622,0.979202,0.477164,0.154549,9.888608,0.004325,0.000476,0.016520,0.758227,-0.353493,-1.225781,100303.0000
1764076153996089927,2025-11-25 18:39:13.993,0.672417,2.639999,321.295742,0.047730,0.013411,0.978141,0.915086,-0.039600,10.009949,0.004638,0.007132,0.029003,0.756302,-0.354447,-1.225256,100302.0000
1764076154095725686,2025-11-25 18:39:14.093,0.657494,2.588521,321.203949,0.046403,0.013962,0.975809,0.567633,-0.247260,9.664189,-0.009147,0.009629,0.015929,0.759205,-0.354860,-1.222885,100303.0000
1764076154196325057,2025-11-25 18:39:14.193,0.650754,2.532164,321.118149,0.040208,0.012877,0.974203,0.204400,0.300373,9.666710,0.003235,0.007171,0.012956,0.757259,-0.357755,-1.223775,100302.0000
1764076154296243705,2025-11-25 18:39:14.293,0.646498,2.500206,321.056133,0.038370,0.012398,0.977190,0.192256,0.090317,9.528136,-0.000848,0.003476,0.005859,0.757759,-0.356290,-1.222360,100302.0000
1764076154395893631,2025-11-25 18:39:14.393,0.649971,2.525320,321.000404,0.036276,0.010580,0.979137,0.224950,0.082006,9.768800,0.003977,-0.006249,0.006503,0.756771,-0.358245,-1.224242,100296.0000
