Timestamp,Time,Roll,Pitch,Yaw,Magnetic_Field_X,Magnetic_Field_Y,Magnetic_Field_Z,Angular_Rate_X,Angular_Rate_Y,Angular_Rate_Z,Acceleration_X,Acceleration_Y,Acceleration_Z
1779273320114843109,2026-05-20 16:05:20.111,-2.072000,1.507000,233.346000,-0.262600,-0.200700,0.141000,-0.004213,0.013571,0.023666,0.189000,0.281000,-10.065000
1779273320123899368,2026-05-20 16:05:20.120,-2.080000,1.531000,233.383000,-0.263500,-0.197700,0.140900,-0.006096,0.014671,0.027559,0.361000,0.466000,-10.218000
1779273320146123294,2026-05-20 16:05:20.143,-2.088000,1.554000,233.428000,-0.261700,-0.202600,0.138900,-0.007520,0.015822,0.031850,0.329000,0.415000,-10.144000
1779273320156672516,2026-05-20 16:05:20.153,-2.092000,1.577000,233.480000,-0.263500,-0.199700,0.143100,-0.002286,0.016810,0.037662,0.295000,0.328000,-10.046000
1779273320201957998,2026-05-20 16:05:20.200,-2.103000,1.631000,233.619000,-0.263600,-0.201600,0.141000,-0.007091,0.017971,0.061655,0.305000,0.421000,-10.134000
1779273320212982924,2026-05-20 16:05:20.210,-2.111000,1.664000,233.715000,-0.264400,-0.197700,0.136600,-0.010048,0.018865,0.074987,0.337000,0.407000,-10.120000
1779273320237875609,2026-05-20 16:05:20.236,-2.118000,1.698000,233.838000,-0.263500,-0.196700,0.138800,-0.007021,0.019549,0.093188,0.503000,0.313000,-10.139000
1779273320262549516,2026-05-20 16:05:20.260,-2.127000,1.723000,233.994000,-0.264400,-0.195700,0.140900,-0.011139,0.010096,0.118144,0.343000,0.333000,-10.091000
1779273320298112183,2026-05-20 16:05:20.284,-2.138000,1.736000,234.190000,-0.263300,-0.188900,0.137600,-0.012473,-0.002695,0.147096,0.076000,0.304000,-10.228000
1779273320322605183,2026-05-20 16:05:20.317,-2.152000,1.739000,234.424000,-0.267100,-0.191700,0.138500,-0.014576,-0.007806,0.172471,0.148000,0.468000,-10.232000
1779273320434298775,2026-05-20 16:05:20.370,-2.162000,1.741000,234.686000,-0.266000,-0.186800,0.140700,-0.014029,-0.005812,0.190503,0.286000,0.377000,-10.132000
1779273320498912238,2026-05-20 16:05:20.489,-2.174000,1.744000,234.978000,-0.268900,-0.191700,0.136300,-0.013411,-0.006824,0.209693,0.399000,0.314000,-10.192000
1779273320567282368,2026-05-20 16:05:20.546,-2.185000,1.743000,235.293000,-0.269800,-0.189700,0.141600,-0.014742,-0.013465,0.224310,0.463000,0.239000,-10.202000
1779273320627745720,2026-05-20 16:05:20.619,-2.194000,1.737000,235.625000,-0.269800,-0.189700,0.139500,-0.013580,-0.015618,0.235937,0.607000,0.542000,-10.077000
1779273320657470386,2026-05-20 16:05:20.650,-2.198000,1.729000,235.970000,-0.271700,-0.190700,0.139400,-0.009726,-0.012468,0.242315,0.414000,0.384000,-10.088000
1779273320669962886,2026-05-20 16:05:20.668,-2.204000,1.722000,236.325000,-0.271600,-0.187700,0.143700,-0.008245,-0.012767,0.249737,0.075000,0.607000,-10.066000
1779273320682079183,2026-05-20 16:05:20.678,-2.206000,1.716000,236.687000,-0.270600,-0.183800,0.141500,-0.008543,-0.016458,0.249854,0.410000,0.233000,-10.253000
1779273320691853923,2026-05-20 16:05:20.690,-2.205000,1.703000,237.056000,-0.274400,-0.185700,0.138100,-0.004606,-0.020566,0.263571,0.343000,0.358000,-10.220000
1779273320705003627,2026-05-20 16:05:20.700,-2.203000,1.684000,237.432000,-0.273400,-0.183800,0.138100,-0.006470,-0.024015,0.265686,0.324000,0.483000,-10.047000
1779273320718052164,2026-05-20 16:05:20.712,-2.200000,1.670000,237.816000,-0.276100,-0.177800,0.138000,-0.000527,-0.017019,0.269378,0.353000,0.376000,-10.312000
1779273320726638701,2026-05-20 16:05:20.724,-2.197000,1.660000,238.208000,-0.275900,-0.171900,0.141200,-0.004544,-0.016506,0.271988,0.260000,0.299000,-10.271000
1779273320743931016,2026-05-20 16:05:20.740,-2.191000,1.640000,238.613000,-0.277900,-0.177800,0.136800,-0.004503,-0.025071,0.284540,0.200000,0.244000,-10.256000
1779273320755252090,2026-05-20 16:05:20.752,-2.187000,1.616000,239.027000,-0.280600,-0.171800,0.139800,-0.005227,-0.029156,0.287751,0.283000,0.555000,-10.307000
1779273320773900627,2026-05-20 16:05:20.770,-2.179000,1.598000,239.449000,-0.282400,-0.167900,0.139700,-0.001482,-0.019871,0.296491,0.143000,0.497000,-10.251000
1779273320793948164,2026-05-20 16:05:20.790,-2.172000,1.586000,239.878000,-0.281400,-0.165900,0.137600,-0.007786,-0.018459,0.305283,0.246000,0.439000,-10.204000
1779273320808282368,2026-05-20 16:05:20.806,-2.167000,1.569000,240.322000,-0.282400,-0.168900,0.137500,-0.005993,-0.027521,0.312891,0.286000,0.425000,-10.223000
1779273320818997442,2026-05-20 16:05:20.816,-2.162000,1.549000,240.780000,-0.286000,-0.163900,0.135200,-0.003076,-0.027962,0.319332,0.193000,0.481000,-10.175000
1779273320827256553,2026-05-20 16:05:20.826,-2.151000,1.535000,241.242000,-0.288700,-0.158900,0.136100,-0.002108,-0.019474,0.325219,0.254000,0.247000,-10.124000
1779273320834565460,2026-05-20 16:05:20.833,-2.142000,1.527000,241.716000,-0.286800,-0.158000,0.139400,-0.001115,-0.017791,0.332838,0.171000,0.522000,-10.163000
1779273320841725942,2026-05-20 16:05:20.840,-2.132000,1.514000,242.198000,-0.287600,-0.154000,0.141500,-0.001693,-0.023783,0.336965,0.297000,0.501000,-10.141000
1779273320851583942,2026-05-20 16:05:20.849,-2.120000,1.498000,242.679000,-0.291400,-0.156900,0.135900,-0.000294,-0.024891,0.340973,0.294000,0.343000,-10.141000
1779273320862636812,2026-05-20 16:05:20.861,-2.105000,1.484000,243.170000,-0.289500,-0.155900,0.143600,0.002243,-0.019187,0.342469,0.222000,0.123000,-10.164000
1779273320885164145,2026-05-20 16:05:20.883,-2.091000,1.476000,243.668000,-0.294000,-0.147000,0.143300,0.001868,-0.014755,0.347681,0.205000,0.480000,-10.144000
1779273320910165164,2026-05-20 16:05:20.909,-2.075000,1.472000,244.164000,-0.292200,-0.151000,0.141200,0.000769,-0.017813,0.348003,0.292000,0.362000,-10.200000
1779273320935056238,2026-05-20 16:05:20.933,-2.059000,1.461000,244.660000,-0.296600,-0.139100,0.139800,0.001726,-0.020051,0.351331,0.232000,0.258000,-10.135000
1779273320960051812,2026-05-20 16:05:20.959,-2.042000,1.449000,245.160000,-0.296700,-0.143000,0.136600,-0.000382,-0.018153,0.350667,0.223000,0.238000,-10.051000
1779273320985034460,2026-05-20 16:05:20.983,-2.027000,1.447000,245.664000,-0.296700,-0.142000,0.138700,0.004405,-0.012114,0.350012,0.267000,0.489000,-10.170000
1779273321010153330,2026-05-20 16:05:21.009,-2.012000,1.447000,246.165000,-0.299200,-0.131200,0.136400,-0.001876,-0.013096,0.348878,0.256000,0.381000,-10.068000
1779273321035142219,2026-05-20 16:05:21.034,-2.001000,1.439000,246.661000,-0.299300,-0.132200,0.139600,-0.002985,-0.020173,0.347522,0.285000,0.423000,-10.123000
1779273321060037664,2026-05-20 16:05:21.058,-1.992000,1.430000,247.159000,-0.299300,-0.135100,0.139600,-0.005009,-0.017659,0.347593,0.177000,0.375000,-10.101000
1779273321084994719,2026-05-20 16:05:21.083,-1.982000,1.428000,247.648000,-0.299200,-0.128200,0.138500,-0.001328,-0.010716,0.343599,0.258000,0.429000,-10.105000
1779273321109999516,2026-05-20 16:05:21.108,-1.975000,1.429000,248.138000,-0.302000,-0.131100,0.138400,-0.005807,-0.012456,0.342864,0.205000,0.584000,-10.087000
1779273321135084886,2026-05-20 16:05:21.134,-1.972000,1.424000,248.629000,-0.304700,-0.124200,0.137100,-0.007806,-0.019151,0.341557,0.294000,0.542000,-10.213000
1779273321198364775,2026-05-20 16:05:21.197,-1.968000,1.411000,249.599000,-0.307300,-0.118300,0.141300,-0.005656,-0.012452,0.336530,0.203000,0.344000,-10.079000
1779273321210011479,2026-05-20 16:05:21.208,-1.972000,1.409000,250.084000,-0.308200,-0.116300,0.141200,-0.010851,-0.014924,0.338814,0.289000,0.548000,-10.173000
1779273321235075923,2026-05-20 16:05:21.234,-1.976000,1.399000,250.572000,-0.307100,-0.107500,0.141200,-0.013344,-0.019048,0.337976,0.311000,0.394000,-10.115000
1779273321260252664,2026-05-20 16:05:21.259,-1.984000,1.388000,251.054000,-0.309100,-0.116300,0.141100,-0.012484,-0.019116,0.336191,0.195000,0.359000,-10.099000
1779273321285023201,2026-05-20 16:05:21.283,-1.992000,1.384000,251.540000,-0.309900,-0.110300,0.144300,-0.016527,-0.014024,0.340519,0.193000,0.320000,-10.171000
1779273321310461627,2026-05-20 16:05:21.309,-2.004000,1.381000,252.029000,-0.312700,-0.108300,0.145200,-0.016438,-0.014334,0.342947,0.348000,0.429000,-10.221000
1779273321336010201,2026-05-20 16:05:21.334,-2.014000,1.374000,252.517000,-0.312600,-0.103400,0.144100,-0.016497,-0.018460,0.341051,0.230000,0.295000,-10.072000
1779273321360060423,2026-05-20 16:05:21.359,-2.028000,1.363000,253.010000,-0.311600,-0.102500,0.138700,-0.014757,-0.021531,0.344902,0.256000,0.344000,-10.207000
1779273321385350886,2026-05-20 16:05:21.384,-2.041000,1.357000,253.510000,-0.312500,-0.100500,0.141900,-0.017705,-0.014548,0.345396,0.179000,0.376000,-10.223000
1779273321410375145,2026-05-20 16:05:21.408,-2.055000,1.358000,254.008000,-0.311500,-0.097500,0.140800,-0.015555,-0.009445,0.350940,0.245000,0.328000,-10.177000
1779273321434977756,2026-05-20 16:05:21.433,-2.068000,1.355000,254.510000,-0.314300,-0.096500,0.139600,-0.018078,-0.017893,0.351936,0.274000,0.188000,-10.195000
1779273321459973293,2026-05-20 16:05:21.458,-2.083000,1.349000,255.016000,-0.313200,-0.091600,0.144000,-0.015658,-0.018157,0.356628,0.273000,0.263000,-10.247000
1779273321485029738,2026-05-20 16:05:21.483,-2.095000,1.344000,255.529000,-0.315100,-0.092500,0.146000,-0.019910,-0.014449,0.358202,0.204000,0.263000,-10.143000
1779273321510007664,2026-05-20 16:05:21.508,-2.105000,1.346000,256.040000,-0.315900,-0.083700,0.142700,-0.014912,-0.008272,0.359971,0.243000,0.296000,-10.123000
1779273321534907071,2026-05-20 16:05:21.533,-2.115000,1.351000,256.551000,-0.317800,-0.085600,0.141500,-0.018217,-0.011504,0.362229,0.351000,0.242000,-10.208000
1779273321560017830,2026-05-20 16:05:21.558,-2.121000,1.352000,257.065000,-0.319500,-0.080700,0.144600,-0.014699,-0.012106,0.362166,0.237000,0.325000,-10.154000
1779273321584993238,2026-05-20 16:05:21.583,-2.128000,1.354000,257.582000,-0.319500,-0.077700,0.143500,-0.015582,-0.009124,0.360656,0.277000,0.360000,-10.107000
1779273321609903738,2026-05-20 16:05:21.608,-2.128000,1.361000,258.095000,-0.318500,-0.076800,0.144600,-0.009065,-0.006812,0.359793,0.217000,0.399000,-10.091000
1779273321634839534,2026-05-20 16:05:21.633,-2.128000,1.366000,258.603000,-0.321100,-0.069800,0.144400,-0.009884,-0.011553,0.358368,0.331000,0.300000,-10.147000
1779273321659930626,2026-05-20 16:05:21.658,-2.125000,1.367000,259.113000,-0.319400,-0.073800,0.144600,-0.005530,-0.013241,0.356812,0.258000,0.328000,-10.101000
1779273321684870386,2026-05-20 16:05:21.683,-2.122000,1.365000,259.615000,-0.321100,-0.068800,0.144400,-0.005571,-0.012923,0.351963,0.268000,0.308000,-10.126000
1779273321709996145,2026-05-20 16:05:21.708,-2.112000,1.367000,260.113000,-0.321900,-0.062000,0.138900,-0.001983,-0.011603,0.348453,0.229000,0.169000,-10.105000
1779273321734911145,2026-05-20 16:05:21.733,-2.106000,1.368000,260.610000,-0.321800,-0.058000,0.146500,-0.002424,-0.015376,0.346789,0.331000,0.265000,-10.175000
1779273321760038941,2026-05-20 16:05:21.758,-2.096000,1.364000,261.108000,-0.321700,-0.055100,0.143200,-0.001385,-0.016675,0.345388,0.364000,0.199000,-10.128000
1779273321785023423,2026-05-20 16:05:21.783,-2.087000,1.358000,261.601000,-0.322700,-0.056000,0.146400,0.002898,-0.015923,0.340485,0.251000,0.374000,-10.081000
1779273321809979293,2026-05-20 16:05:21.808,-2.075000,1.357000,262.087000,-0.323500,-0.051100,0.144200,-0.000652,-0.012306,0.340722,0.256000,0.318000,-10.124000
1779273321834860478,2026-05-20 16:05:21.833,-2.066000,1.359000,262.574000,-0.323500,-0.051100,0.142000,0.001731,-0.012138,0.340117,0.175000,0.369000,-10.168000
1779273321859990608,2026-05-20 16:05:21.858,-2.057000,1.360000,263.060000,-0.323400,-0.046200,0.141900,-0.000156,-0.013867,0.336560,0.260000,0.538000,-10.168000
1779273321884890145,2026-05-20 16:05:21.883,-2.049000,1.356000,263.539000,-0.324300,-0.043300,0.138600,0.000307,-0.015450,0.336930,0.246000,0.398000,-10.167000
1779273321909888756,2026-05-20 16:05:21.908,-2.043000,1.352000,264.026000,-0.324200,-0.042300,0.144000,-0.003745,-0.015515,0.339671,0.252000,0.387000,-10.092000
1779273321934808626,2026-05-20 16:05:21.933,-2.037000,1.353000,264.510000,-0.322100,-0.030500,0.144000,-0.000751,-0.010154,0.336660,0.254000,0.469000,-10.194000
1779273321959965515,2026-05-20 16:05:21.958,-2.036000,1.355000,264.994000,-0.326900,-0.036300,0.146000,-0.007808,-0.009879,0.339731,0.255000,0.431000,-10.237000
1779273321984988774,2026-05-20 16:05:21.983,-2.036000,1.353000,265.483000,-0.327800,-0.033300,0.144900,-0.007987,-0.014888,0.342958,0.256000,0.290000,-10.217000
1779273322009885182,2026-05-20 16:05:22.008,-2.040000,1.347000,265.972000,-0.324800,-0.030400,0.146800,-0.008379,-0.016624,0.345015,0.161000,0.358000,-10.148000
1779273322034825237,2026-05-20 16:05:22.033,-2.041000,1.348000,266.461000,-0.324800,-0.029500,0.145700,-0.010630,-0.010987,0.342402,0.329000,0.291000,-10.198000
1779273322059943941,2026-05-20 16:05:22.058,-2.047000,1.351000,266.955000,-0.327500,-0.027400,0.143300,-0.013215,-0.006934,0.347447,0.260000,0.251000,-10.180000
1779273322084860515,2026-05-20 16:05:22.083,-2.054000,1.351000,267.452000,-0.327500,-0.023500,0.146600,-0.017200,-0.013830,0.349636,0.238000,0.135000,-10.144000
1779273322109881404,2026-05-20 16:05:22.108,-2.065000,1.351000,267.951000,-0.326500,-0.021600,0.141200,-0.013972,-0.013065,0.349797,0.259000,0.329000,-10.192000
1779273322134925200,2026-05-20 16:05:22.133,-2.073000,1.354000,268.450000,-0.327300,-0.017600,0.145400,-0.019514,-0.008129,0.351653,0.340000,0.228000,-10.107000
1779273322198235496,2026-05-20 16:05:22.197,-2.093000,1.358000,269.454000,-0.327200,-0.012700,0.142100,-0.017933,-0.013873,0.353811,0.283000,0.367000,-10.146000
1779273322209866071,2026-05-20 16:05:22.208,-2.101000,1.360000,269.953000,-0.327100,-0.009800,0.144300,-0.013142,-0.010819,0.350371,0.359000,0.433000,-10.051000
1779273322234800515,2026-05-20 16:05:22.233,-2.108000,1.363000,270.452000,-0.328000,-0.006800,0.143100,-0.015659,-0.009270,0.350707,0.288000,0.365000,-10.032000
1779273322259821515,2026-05-20 16:05:22.258,-2.113000,1.370000,270.954000,-0.328800,0.001100,0.148400,-0.012369,-0.008859,0.352015,0.312000,0.476000,-10.140000
1779273322284908756,2026-05-20 16:05:22.283,-2.119000,1.377000,271.452000,-0.328700,0.003000,0.144100,-0.014137,-0.008281,0.349082,0.325000,0.565000,-10.068000
1779273322310015645,2026-05-20 16:05:22.308,-2.122000,1.383000,271.947000,-0.326900,0.003000,0.142000,-0.010830,-0.009198,0.348167,0.316000,0.256000,-10.072000
1779273322334795867,2026-05-20 16:05:22.333,-2.127000,1.391000,272.442000,-0.328700,0.005000,0.145200,-0.011866,-0.007632,0.346797,0.270000,0.469000,-10.097000
1779273322359747478,2026-05-20 16:05:22.358,-2.128000,1.399000,272.938000,-0.327600,0.012800,0.144100,-0.010787,-0.008215,0.345584,0.378000,0.416000,-10.114000
1779273322384846496,2026-05-20 16:05:22.383,-2.130000,1.406000,273.426000,-0.327500,0.016800,0.144000,-0.009531,-0.009637,0.341457,0.298000,0.357000,-10.100000
1779273322409852441,2026-05-20 16:05:22.408,-2.130000,1.411000,273.916000,-0.325700,0.010800,0.143100,-0.010739,-0.011235,0.342643,0.347000,0.249000,-10.148000
1779273322434769515,2026-05-20 16:05:22.433,-2.131000,1.417000,274.405000,-0.326500,0.018700,0.148400,-0.010323,-0.008521,0.343590,0.344000,0.409000,-10.104000
1779273322459780959,2026-05-20 16:05:22.458,-2.128000,1.422000,274.888000,-0.328400,0.018800,0.147200,-0.008108,-0.009385,0.340313,0.272000,0.251000,-10.119000
1779273322484986700,2026-05-20 16:05:22.483,-2.125000,1.422000,275.372000,-0.327400,0.019700,0.145100,-0.007387,-0.015749,0.341270,0.316000,0.325000,-10.171000
1779273322509808274,2026-05-20 16:05:22.508,-2.122000,1.417000,275.862000,-0.326400,0.023600,0.145100,-0.009206,-0.018712,0.342115,0.352000,0.401000,-10.085000
1779273322534719200,2026-05-20 16:05:22.533,-2.119000,1.413000,276.347000,-0.325400,0.025600,0.147300,-0.005396,-0.014826,0.340490,0.231000,0.283000,-10.035000
1779273322559776144,2026-05-20 16:05:22.558,-2.116000,1.410000,276.833000,-0.325300,0.029500,0.145100,-0.007218,-0.016954,0.339859,0.298000,0.407000,-10.124000
1779273322584794385,2026-05-20 16:05:22.583,-2.113000,1.404000,277.323000,-0.324300,0.032400,0.144100,-0.008468,-0.019671,0.340698,0.274000,0.475000,-10.129000
1779273322609750311,2026-05-20 16:05:22.608,-2.111000,1.395000,277.813000,-0.324200,0.036400,0.149400,-0.007570,-0.019278,0.340202,0.332000,0.413000,-10.128000
1779273322634718515,2026-05-20 16:05:22.633,-2.109000,1.386000,278.298000,-0.323200,0.043200,0.150500,-0.005688,-0.018742,0.339697,0.245000,0.387000,-10.167000
1779273322659739237,2026-05-20 16:05:22.658,-2.109000,1.380000,278.789000,-0.324100,0.041300,0.145100,-0.008533,-0.015972,0.341570,0.183000,0.569000,-10.123000
1779273322684878774,2026-05-20 16:05:22.683,-2.111000,1.373000,279.278000,-0.323200,0.040300,0.147300,-0.011145,-0.018273,0.342682,0.300000,0.487000,-10.192000
1779273322709736941,2026-05-20 16:05:22.708,-2.113000,1.364000,279.762000,-0.323200,0.043200,0.150500,-0.007911,-0.019573,0.339315,0.225000,0.383000,-10.164000
1779273322734712478,2026-05-20 16:05:22.733,-2.116000,1.356000,280.252000,-0.324000,0.047200,0.148300,-0.008257,-0.019528,0.340662,0.305000,0.489000,-10.220000
1779273322759699070,2026-05-20 16:05:22.758,-2.119000,1.350000,280.743000,-0.322100,0.050100,0.150500,-0.009395,-0.013452,0.341882,0.224000,0.403000,-10.238000
1779273322784764718,2026-05-20 16:05:22.783,-2.123000,1.345000,281.237000,-0.322000,0.055000,0.150500,-0.009644,-0.015445,0.344730,0.162000,0.327000,-10.172000
1779273322809811200,2026-05-20 16:05:22.808,-2.126000,1.339000,281.730000,-0.320100,0.056000,0.150600,-0.009017,-0.020099,0.342811,0.260000,0.298000,-10.298000
1779273322834994311,2026-05-20 16:05:22.833,-2.130000,1.334000,282.223000,-0.321000,0.058900,0.147200,-0.009623,-0.015461,0.346512,0.253000,0.318000,-10.244000
1779273322859765829,2026-05-20 16:05:22.858,-2.133000,1.329000,282.716000,-0.320800,0.064800,0.147200,-0.008751,-0.012388,0.344849,0.205000,0.257000,-10.231000
1779273322884861015,2026-05-20 16:05:22.883,-2.135000,1.327000,283.207000,-0.318900,0.065800,0.148400,-0.008323,-0.014507,0.345042,0.240000,0.354000,-10.195000
1779273322909755033,2026-05-20 16:05:22.908,-2.138000,1.325000,283.700000,-0.317000,0.068700,0.149500,-0.010649,-0.015864,0.345680,0.270000,0.292000,-10.226000
1779273322934760644,2026-05-20 16:05:22.933,-2.140000,1.322000,284.193000,-0.316000,0.070600,0.145200,-0.008609,-0.012759,0.345257,0.245000,0.291000,-10.207000
1779273322959685755,2026-05-20 16:05:22.958,-2.141000,1.322000,284.685000,-0.316000,0.071600,0.152800,-0.009646,-0.011217,0.344325,0.237000,0.287000,-10.160000
1779273322984788922,2026-05-20 16:05:22.983,-2.142000,1.323000,285.179000,-0.315000,0.074500,0.146300,-0.009230,-0.012161,0.347267,0.284000,0.334000,-10.159000
1779273323009695348,2026-05-20 16:05:23.008,-2.144000,1.322000,285.668000,-0.316800,0.076500,0.148000,-0.011832,-0.014286,0.346669,0.317000,0.267000,-10.152000
1779273323034641755,2026-05-20 16:05:23.033,-2.145000,1.320000,286.163000,-0.315700,0.083400,0.148000,-0.007503,-0.013125,0.345538,0.284000,0.349000,-10.126000
1779273323059654718,2026-05-20 16:05:23.058,-2.146000,1.321000,286.654000,-0.312800,0.086300,0.149200,-0.011783,-0.013030,0.347602,0.299000,0.452000,-10.123000
1779273323084886829,2026-05-20 16:05:23.083,-2.147000,1.321000,287.147000,-0.315600,0.087300,0.146900,-0.009883,-0.012078,0.346518,0.319000,0.398000,-10.093000
1779273323109753218,2026-05-20 16:05:23.108,-2.149000,1.319000,287.641000,-0.313800,0.087300,0.151400,-0.010554,-0.016587,0.344943,0.246000,0.481000,-10.085000
1779273323134703477,2026-05-20 16:05:23.133,-2.148000,1.317000,288.135000,-0.311700,0.095100,0.149200,-0.008273,-0.015459,0.345229,0.355000,0.503000,-10.115000
1779273323198242922,2026-05-20 16:05:23.197,-2.147000,1.313000,289.123000,-0.308900,0.097000,0.152600,-0.007458,-0.015397,0.343086,0.254000,0.493000,-10.125000
1779273323209740070,2026-05-20 16:05:23.208,-2.146000,1.312000,289.611000,-0.307900,0.097000,0.148300,-0.006287,-0.014238,0.344182,0.285000,0.555000,-10.169000
1779273323234645477,2026-05-20 16:05:23.233,-2.144000,1.309000,290.098000,-0.307000,0.098900,0.148400,-0.005598,-0.014289,0.342721,0.208000,0.483000,-10.089000
1779273323259629514,2026-05-20 16:05:23.258,-2.143000,1.307000,290.589000,-0.306800,0.105800,0.150500,-0.006677,-0.015797,0.341083,0.230000,0.438000,-10.200000
1779273323284883699,2026-05-20 16:05:23.283,-2.141000,1.306000,291.077000,-0.304000,0.106700,0.148400,-0.004774,-0.014670,0.340939,0.259000,0.366000,-10.145000
1779273323309636329,2026-05-20 16:05:23.308,-2.139000,1.304000,291.567000,-0.302000,0.113600,0.150600,-0.004724,-0.013619,0.341905,0.220000,0.469000,-10.140000
1779273323334581551,2026-05-20 16:05:23.333,-2.136000,1.302000,292.052000,-0.304900,0.109700,0.146200,-0.004878,-0.014367,0.337891,0.269000,0.316000,-10.251000
1779273323359746329,2026-05-20 16:05:23.358,-2.135000,1.300000,292.543000,-0.302700,0.121400,0.148400,-0.005491,-0.012826,0.342417,0.238000,0.313000,-10.225000
1779273323384646162,2026-05-20 16:05:23.383,-2.134000,1.299000,293.030000,-0.301000,0.117500,0.151700,-0.007384,-0.012398,0.340064,0.228000,0.302000,-10.169000
1779273323409665181,2026-05-20 16:05:23.408,-2.135000,1.301000,293.518000,-0.300800,0.123400,0.151700,-0.006017,-0.012117,0.342828,0.237000,0.321000,-10.240000
1779273323434601644,2026-05-20 16:05:23.433,-2.137000,1.303000,294.005000,-0.300900,0.121400,0.148500,-0.010237,-0.009944,0.343954,0.289000,0.362000,-10.220000
1779273323459555070,2026-05-20 16:05:23.458,-2.139000,1.305000,294.495000,-0.298900,0.127300,0.151800,-0.009587,-0.010369,0.344292,0.220000,0.297000,-10.225000
1779273323484629403,2026-05-20 16:05:23.483,-2.142000,1.308000,294.984000,-0.294200,0.128200,0.153100,-0.011409,-0.009190,0.342613,0.230000,0.172000,-10.166000
1779273323509658459,2026-05-20 16:05:23.508,-2.147000,1.314000,295.479000,-0.295900,0.135100,0.151800,-0.010179,-0.008790,0.348391,0.295000,0.355000,-10.198000
1779273323534594959,2026-05-20 16:05:23.533,-2.152000,1.319000,295.970000,-0.296000,0.130200,0.149700,-0.014987,-0.008473,0.348867,0.324000,0.258000,-10.127000
1779273323559621996,2026-05-20 16:05:23.558,-2.158000,1.323000,296.471000,-0.294100,0.132100,0.150900,-0.010858,-0.009959,0.348693,0.241000,0.255000,-10.102000
1779273323584621162,2026-05-20 16:05:23.583,-2.164000,1.327000,296.969000,-0.293100,0.137000,0.154100,-0.015840,-0.012419,0.349995,0.319000,0.314000,-10.139000
1779273323609745792,2026-05-20 16:05:23.608,-2.172000,1.329000,297.468000,-0.293000,0.141900,0.148700,-0.014292,-0.011020,0.351294,0.326000,0.350000,-10.043000
1779273323635616107,2026-05-20 16:05:23.634,-2.180000,1.330000,297.964000,-0.290200,0.141800,0.151000,-0.015123,-0.013293,0.348270,0.265000,0.363000,-10.061000
1779273323659522384,2026-05-20 16:05:23.658,-2.185000,1.332000,298.460000,-0.288300,0.144800,0.153200,-0.013230,-0.014630,0.350087,0.346000,0.414000,-10.098000
1779273323685604403,2026-05-20 16:05:23.684,-2.191000,1.331000,298.954000,-0.288300,0.145800,0.155400,-0.013977,-0.013588,0.346127,0.332000,0.496000,-10.092000
1779273323709640459,2026-05-20 16:05:23.708,-2.194000,1.332000,299.447000,-0.284400,0.153500,0.156600,-0.010564,-0.013291,0.344871,0.272000,0.401000,-10.106000
1779273323735545144,2026-05-20 16:05:23.734,-2.198000,1.331000,299.942000,-0.281600,0.152500,0.153500,-0.010733,-0.014533,0.344955,0.260000,0.549000,-10.103000
1779273323760612477,2026-05-20 16:05:23.759,-2.198000,1.331000,300.438000,-0.283400,0.153500,0.154500,-0.009909,-0.014022,0.345962,0.358000,0.535000,-10.102000
1779273323785618755,2026-05-20 16:05:23.784,-2.199000,1.331000,300.929000,-0.280600,0.157400,0.156800,-0.007010,-0.015546,0.344580,0.256000,0.451000,-10.137000
1779273323810752403,2026-05-20 16:05:23.809,-2.194000,1.332000,301.422000,-0.279600,0.158400,0.154700,-0.006536,-0.013776,0.344587,0.299000,0.460000,-10.159000
1779273323835551995,2026-05-20 16:05:23.834,-2.190000,1.331000,301.919000,-0.278600,0.161300,0.156800,-0.006002,-0.014887,0.347239,0.296000,0.453000,-10.123000
1779273323859459440,2026-05-20 16:05:23.858,-2.183000,1.329000,302.412000,-0.275800,0.160300,0.157000,-0.004426,-0.015883,0.346954,0.254000,0.399000,-10.089000
1779273323885630532,2026-05-20 16:05:23.884,-2.179000,1.326000,302.911000,-0.274800,0.165200,0.157000,-0.004164,-0.018354,0.348947,0.250000,0.451000,-10.158000
1779273323909591977,2026-05-20 16:05:23.908,-2.171000,1.319000,303.406000,-0.272800,0.170000,0.159200,-0.005409,-0.016687,0.346948,0.279000,0.469000,-10.091000
1779273323935542773,2026-05-20 16:05:23.934,-2.165000,1.314000,303.901000,-0.271900,0.170000,0.160400,-0.004243,-0.018063,0.347582,0.206000,0.393000,-10.133000
1779273323959496995,2026-05-20 16:05:23.958,-2.161000,1.310000,304.401000,-0.270100,0.166000,0.156200,-0.005131,-0.017397,0.348393,0.314000,0.477000,-10.212000
1779273323985617940,2026-05-20 16:05:23.984,-2.157000,1.303000,304.898000,-0.268100,0.173900,0.154000,-0.006194,-0.016236,0.350119,0.255000,0.464000,-10.120000
1779273324009503977,2026-05-20 16:05:24.008,-2.153000,1.295000,305.393000,-0.267000,0.180700,0.157300,-0.005924,-0.019963,0.344952,0.227000,0.447000,-10.139000
1779273324035564440,2026-05-20 16:05:24.034,-2.152000,1.289000,305.889000,-0.266800,0.177600,0.150300,-0.006064,-0.018334,0.348760,0.239000,0.478000,-10.210000
1779273324059553829,2026-05-20 16:05:24.058,-2.151000,1.285000,306.384000,-0.262900,0.186400,0.155900,-0.007666,-0.014831,0.345346,0.198000,0.414000,-10.133000
1779273324086327458,2026-05-20 16:05:24.084,-2.153000,1.283000,306.878000,-0.260200,0.184300,0.152800,-0.007926,-0.017422,0.346025,0.261000,0.406000,-10.178000
1779273324109514532,2026-05-20 16:05:24.108,-2.155000,1.279000,307.374000,-0.261100,0.185400,0.159200,-0.008543,-0.015428,0.343537,0.208000,0.444000,-10.244000
1779273324135571773,2026-05-20 16:05:24.134,-2.159000,1.277000,307.868000,-0.261000,0.188300,0.153800,-0.010384,-0.014467,0.345719,0.258000,0.392000,-10.185000
1779273324197842847,2026-05-20 16:05:24.196,-2.169000,1.280000,308.849000,-0.257200,0.192100,0.153900,-0.012661,-0.014002,0.344238,0.161000,0.447000,-10.254000
1779273324209556606,2026-05-20 16:05:24.208,-2.178000,1.278000,309.341000,-0.254300,0.196000,0.154000,-0.013719,-0.015090,0.342052,0.293000,0.435000,-10.152000
1779273324235585199,2026-05-20 16:05:24.234,-2.186000,1.275000,309.833000,-0.252400,0.197900,0.155200,-0.011150,-0.016366,0.342811,0.186000,0.478000,-10.157000
1779273324260081773,2026-05-20 16:05:24.258,-2.194000,1.273000,310.322000,-0.250500,0.200800,0.153100,-0.012470,-0.016938,0.342775,0.238000,0.432000,-10.205000
1779273324286677699,2026-05-20 16:05:24.284,-2.202000,1.269000,310.814000,-0.248700,0.198900,0.155400,-0.013631,-0.015386,0.346031,0.283000,0.418000,-10.205000
1779273324310653625,2026-05-20 16:05:24.309,-2.212000,1.265000,311.306000,-0.246700,0.204700,0.159800,-0.012064,-0.015873,0.341728,0.217000,0.365000,-10.157000
1779273324335486717,2026-05-20 16:05:24.334,-2.221000,1.261000,311.800000,-0.244800,0.206600,0.158800,-0.011065,-0.016970,0.345687,0.205000,0.399000,-10.206000
1779273324359460125,2026-05-20 16:05:24.358,-2.227000,1.254000,312.292000,-0.243800,0.211500,0.159900,-0.012028,-0.017912,0.345833,0.265000,0.288000,-10.178000
1779273324385517532,2026-05-20 16:05:24.384,-2.234000,1.249000,312.787000,-0.241000,0.210500,0.154600,-0.009450,-0.017568,0.347194,0.202000,0.288000,-10.151000
1779273324410471662,2026-05-20 16:05:24.409,-2.239000,1.244000,313.282000,-0.238200,0.210400,0.154700,-0.011621,-0.016517,0.347232,0.259000,0.310000,-10.192000
1779273324435556828,2026-05-20 16:05:24.434,-2.242000,1.236000,313.779000,-0.235300,0.213300,0.157000,-0.008524,-0.017703,0.350053,0.235000,0.264000,-10.116000
1779273324460492532,2026-05-20 16:05:24.459,-2.243000,1.227000,314.275000,-0.236200,0.216300,0.158000,-0.009397,-0.019429,0.348075,0.254000,0.253000,-10.110000
1779273324485599606,2026-05-20 16:05:24.484,-2.243000,1.220000,314.773000,-0.231500,0.218200,0.157200,-0.006744,-0.019123,0.347580,0.271000,0.250000,-10.197000
1779273324510537051,2026-05-20 16:05:24.509,-2.242000,1.211000,315.271000,-0.230600,0.218200,0.158300,-0.009832,-0.018841,0.349289,0.293000,0.226000,-10.130000
1779273324535601902,2026-05-20 16:05:24.534,-2.240000,1.204000,315.766000,-0.228700,0.221100,0.176800,-0.006091,-0.016464,0.346787,0.272000,0.298000,-10.040000
1779273324560555569,2026-05-20 16:05:24.559,-2.237000,1.201000,316.261000,-0.226600,0.229900,0.176800,-0.005293,-0.014529,0.346899,0.271000,0.319000,-10.107000
1779273324585511939,2026-05-20 16:05:24.584,-2.232000,1.199000,316.754000,-0.224800,0.228900,0.161800,-0.006135,-0.012964,0.348218,0.299000,0.290000,-10.150000
1779273324610615310,2026-05-20 16:05:24.609,-2.227000,1.197000,317.248000,-0.222100,0.225800,0.157600,-0.003556,-0.014885,0.344853,0.252000,0.308000,-10.092000
1779273324635468199,2026-05-20 16:05:24.634,-2.222000,1.196000,317.740000,-0.221100,0.226800,0.157600,-0.003839,-0.013001,0.345001,0.314000,0.306000,-10.151000
1779273324660427495,2026-05-20 16:05:24.659,-2.217000,1.197000,318.232000,-0.218200,0.229700,0.161000,-0.004814,-0.012475,0.344222,0.263000,0.181000,-10.082000
1779273324685480125,2026-05-20 16:05:24.684,-2.212000,1.198000,318.724000,-0.214400,0.237500,0.160100,-0.005161,-0.012973,0.344344,0.218000,0.168000,-10.078000
1779273324710521180,2026-05-20 16:05:24.709,-2.210000,1.198000,319.214000,-0.214400,0.233600,0.155800,-0.006277,-0.014471,0.343965,0.339000,0.322000,-10.104000
1779273324735495069,2026-05-20 16:05:24.734,-2.207000,1.194000,319.707000,-0.211600,0.235500,0.164600,-0.006593,-0.015666,0.342954,0.202000,0.161000,-10.092000
1779273324760383754,2026-05-20 16:05:24.759,-2.205000,1.192000,320.195000,-0.209800,0.234500,0.184200,-0.008657,-0.014099,0.341871,0.256000,0.192000,-10.103000
1779273324785411254,2026-05-20 16:05:24.784,-2.207000,1.191000,320.688000,-0.205900,0.242300,0.162600,-0.009490,-0.013680,0.343198,0.225000,0.317000,-10.131000
1779273324810427939,2026-05-20 16:05:24.809,-2.210000,1.190000,321.174000,-0.203100,0.240200,0.158400,-0.014515,-0.014651,0.343435,0.316000,0.175000,-10.162000
1779273324835373717,2026-05-20 16:05:24.834,-2.214000,1.190000,321.662000,-0.202200,0.242300,0.183400,-0.012165,-0.013186,0.341936,0.229000,0.311000,-10.076000
1779273324860419958,2026-05-20 16:05:24.859,-2.221000,1.191000,322.153000,-0.203000,0.245100,0.160600,-0.012893,-0.012394,0.344979,0.250000,0.307000,-10.130000
1779273324885356569,2026-05-20 16:05:24.884,-2.229000,1.193000,322.647000,-0.198400,0.244100,0.161900,-0.014371,-0.010617,0.346252,0.358000,0.389000,-10.148000
1779273324910516050,2026-05-20 16:05:24.909,-2.237000,1.196000,323.138000,-0.197400,0.249000,0.164100,-0.014186,-0.011987,0.345455,0.177000,0.418000,-10.012000
1779273324935342217,2026-05-20 16:05:24.934,-2.246000,1.200000,323.635000,-0.192700,0.249900,0.163200,-0.014896,-0.013312,0.344003,0.280000,0.444000,-10.122000
1779273324960349032,2026-05-20 16:05:24.959,-2.255000,1.203000,324.132000,-0.192800,0.246900,0.162200,-0.013600,-0.010509,0.345393,0.233000,0.598000,-10.079000
1779273324985447198,2026-05-20 16:05:24.984,-2.263000,1.208000,324.625000,-0.190900,0.248900,0.185000,-0.013876,-0.010848,0.344050,0.238000,0.502000,-10.002000
1779273325010421810,2026-05-20 16:05:25.009,-2.272000,1.211000,325.117000,-0.187100,0.249800,0.162400,-0.012650,-0.013674,0.343129,0.275000,0.501000,-10.165000
1779273325035360624,2026-05-20 16:05:25.034,-2.280000,1.210000,325.613000,-0.185200,0.251700,0.162500,-0.012812,-0.016026,0.344244,0.274000,0.535000,-10.157000
1779273325060382735,2026-05-20 16:05:25.059,-2.286000,1.208000,326.105000,-0.184300,0.265200,0.187400,-0.010892,-0.015194,0.343350,0.272000,0.413000,-10.073000
1779273325085393310,2026-05-20 16:05:25.084,-2.290000,1.208000,326.598000,-0.181600,0.262200,0.183200,-0.008396,-0.014397,0.342630,0.245000,0.412000,-10.171000
1779273325110379680,2026-05-20 16:05:25.109,-2.295000,1.205000,327.092000,-0.180800,0.259200,0.182200,-0.009668,-0.019880,0.344214,0.299000,0.514000,-10.111000
1779273325135330550,2026-05-20 16:05:25.134,-2.297000,1.201000,327.584000,-0.177000,0.262100,0.184500,-0.007472,-0.017167,0.341267,0.278000,0.339000,-10.112000
1779273325197725828,2026-05-20 16:05:25.196,-2.296000,1.191000,328.571000,-0.172300,0.263000,0.186900,-0.005275,-0.017274,0.340745,0.224000,0.375000,-10.223000
1779273325210361254,2026-05-20 16:05:25.209,-2.294000,1.188000,329.060000,-0.170400,0.265900,0.176200,-0.005015,-0.016538,0.340451,0.290000,0.290000,-10.173000
1779273325235366661,2026-05-20 16:05:25.234,-2.290000,1.183000,329.550000,-0.165700,0.267800,0.182900,-0.004541,-0.017598,0.339124,0.227000,0.329000,-10.188000
1779273325260370958,2026-05-20 16:05:25.259,-2.285000,1.181000,330.038000,-0.164700,0.270700,0.184000,-0.002497,-0.012806,0.340403,0.180000,0.355000,-10.244000
1779273325285298606,2026-05-20 16:05:25.284,-2.278000,1.180000,330.526000,-0.161800,0.271600,0.159200,-0.003409,-0.012765,0.339095,0.242000,0.190000,-10.183000
1779273325310339606,2026-05-20 16:05:25.309,-2.272000,1.182000,331.015000,-0.159000,0.273600,0.184300,-0.001792,-0.013133,0.340472,0.176000,0.296000,-10.195000
1779273325335315180,2026-05-20 16:05:25.334,-2.267000,1.186000,331.501000,-0.158000,0.274400,0.160400,-0.004443,-0.010337,0.341147,0.292000,0.279000,-10.223000
1779273325360406420,2026-05-20 16:05:25.359,-2.262000,1.190000,331.990000,-0.156200,0.274400,0.164900,-0.003252,-0.007715,0.342994,0.213000,0.216000,-10.121000
1779273325385363291,2026-05-20 16:05:25.384,-2.257000,1.200000,332.477000,-0.151500,0.275400,0.185700,-0.006079,-0.006662,0.339309,0.308000,0.238000,-10.185000
1779273325410393328,2026-05-20 16:05:25.409,-2.252000,1.210000,332.966000,-0.149600,0.279300,0.185800,-0.003680,-0.005605,0.342516,0.221000,0.292000,-10.142000
1779273325435277328,2026-05-20 16:05:25.434,-2.248000,1.221000,333.454000,-0.147700,0.277300,0.184800,-0.010718,-0.004359,0.343906,0.244000,0.263000,-10.199000
1779273325460340865,2026-05-20 16:05:25.459,-2.246000,1.233000,333.945000,-0.143900,0.282100,0.186100,-0.006942,-0.004685,0.341226,0.323000,0.295000,-10.104000
1779273325485342476,2026-05-20 16:05:25.484,-2.246000,1.247000,334.437000,-0.142000,0.285000,0.184000,-0.008160,-0.004681,0.345331,0.235000,0.372000,-10.101000
1779273325510294550,2026-05-20 16:05:25.509,-2.244000,1.262000,334.927000,-0.138200,0.286900,0.188500,-0.008094,-0.004087,0.343160,0.325000,0.431000,-10.192000
1779273325535186624,2026-05-20 16:05:25.534,-2.245000,1.272000,335.419000,-0.137300,0.284900,0.184200,-0.009494,-0.005067,0.343242,0.222000,0.449000,-10.037000
1779273325560365624,2026-05-20 16:05:25.559,-2.248000,1.284000,335.911000,-0.135400,0.287900,0.185300,-0.009895,-0.007217,0.340067,0.297000,0.564000,-10.036000
1779273325585248457,2026-05-20 16:05:25.584,-2.252000,1.295000,336.405000,-0.133600,0.284900,0.181100,-0.010345,-0.005639,0.343026,0.314000,0.581000,-10.167000
1779273325610320402,2026-05-20 16:05:25.609,-2.254000,1.304000,336.898000,-0.128800,0.290700,0.186700,-0.010196,-0.007750,0.343803,0.243000,0.467000,-10.037000
1779273325635230439,2026-05-20 16:05:25.634,-2.259000,1.308000,337.392000,-0.127000,0.287700,0.185800,-0.008482,-0.012998,0.342099,0.278000,0.556000,-10.119000
1779273325660298661,2026-05-20 16:05:25.659,-2.263000,1.311000,337.890000,-0.123200,0.290600,0.185900,-0.010817,-0.012791,0.342578,0.327000,0.546000,-10.165000
1779273325685263531,2026-05-20 16:05:25.684,-2.269000,1.311000,338.383000,-0.121300,0.291500,0.185000,-0.009679,-0.013439,0.344055,0.289000,0.489000,-10.126000
1779273325710250142,2026-05-20 16:05:25.709,-2.272000,1.307000,338.879000,-0.119500,0.292500,0.182900,-0.009395,-0.019444,0.340977,0.183000,0.413000,-10.164000
1779273325735251735,2026-05-20 16:05:25.734,-2.277000,1.299000,339.372000,-0.116700,0.291400,0.184100,-0.008843,-0.020950,0.341484,0.367000,0.531000,-10.184000
1779273325760191828,2026-05-20 16:05:25.759,-2.280000,1.289000,339.864000,-0.111900,0.297300,0.186500,-0.010158,-0.020479,0.340736,0.254000,0.288000,-10.183000
1779273325785304605,2026-05-20 16:05:25.784,-2.285000,1.279000,340.357000,-0.110200,0.291300,0.185500,-0.008984,-0.021011,0.340495,0.231000,0.360000,-10.175000
1779273325810330939,2026-05-20 16:05:25.809,-2.289000,1.269000,340.849000,-0.106300,0.299100,0.188900,-0.009400,-0.023558,0.341863,0.278000,0.359000,-10.207000
1779273325835239494,2026-05-20 16:05:25.834,-2.292000,1.255000,341.342000,-0.104500,0.295200,0.186900,-0.010595,-0.025983,0.341550,0.255000,0.244000,-10.186000
1779273325860277828,2026-05-20 16:05:25.859,-2.294000,1.239000,341.832000,-0.102600,0.297100,0.189100,-0.008218,-0.025542,0.341317,0.232000,0.282000,-10.197000
1779273325885315661,2026-05-20 16:05:25.884,-2.296000,1.225000,342.325000,-0.099600,0.305800,0.167500,-0.008774,-0.023425,0.342520,0.258000,0.337000,-10.165000
1779273325910256587,2026-05-20 16:05:25.909,-2.298000,1.210000,342.816000,-0.099800,0.297000,0.187100,-0.010160,-0.024463,0.340781,0.237000,0.154000,-10.254000
1779273325935354679,2026-05-20 16:05:25.934,-2.297000,1.196000,343.309000,-0.095100,0.298900,0.184100,-0.006985,-0.024130,0.341428,0.183000,0.214000,-10.145000
1779273325960207624,2026-05-20 16:05:25.959,-2.297000,1.184000,343.798000,-0.093200,0.299900,0.189600,-0.007215,-0.021998,0.340847,0.288000,0.341000,-10.154000
1779273325985207309,2026-05-20 16:05:25.984,-2.295000,1.173000,344.289000,-0.089500,0.297800,0.188700,-0.007691,-0.019726,0.343766,0.255000,0.246000,-10.168000
1779273326010224772,2026-05-20 16:05:26.009,-2.294000,1.166000,344.778000,-0.086700,0.301700,0.186600,-0.007123,-0.020900,0.341228,0.209000,0.311000,-10.090000
1779273326035192605,2026-05-20 16:05:26.034,-2.291000,1.161000,345.267000,-0.084700,0.303600,0.185600,-0.005180,-0.017113,0.340057,0.261000,0.442000,-10.153000
1779273326060319827,2026-05-20 16:05:26.059,-2.288000,1.159000,345.755000,-0.079200,0.303000,0.194200,-0.006608,-0.013227,0.341227,0.157000,0.511000,-10.109000
1779273326085294309,2026-05-20 16:05:26.084,-2.283000,1.158000,346.244000,-0.078300,0.301900,0.190000,-0.005628,-0.012857,0.337264,0.291000,0.464000,-10.043000
1779273326110245420,2026-05-20 16:05:26.109,-2.279000,1.161000,346.732000,-0.076300,0.305800,0.184600,-0.004485,-0.011363,0.336447,0.160000,0.506000,-10.092000
1779273326135161494,2026-05-20 16:05:26.134,-2.275000,1.167000,347.222000,-0.073600,0.304800,0.191300,-0.003548,-0.011335,0.340371,0.216000,0.475000,-10.159000
1779273326198582031,2026-05-20 16:05:26.197,-2.266000,1.177000,348.202000,-0.068000,0.303700,0.191600,-0.002947,-0.011231,0.335890,0.213000,0.468000,-10.030000
1779273326210199957,2026-05-20 16:05:26.209,-2.263000,1.186000,348.692000,-0.066100,0.307600,0.188400,-0.004161,-0.009290,0.339321,0.298000,0.335000,-10.259000
1779273326235141568,2026-05-20 16:05:26.234,-2.259000,1.198000,349.183000,-0.060400,0.308500,0.188600,-0.004163,-0.003822,0.341456,0.218000,0.396000,-10.234000
1779273326260146420,2026-05-20 16:05:26.259,-2.260000,1.207000,349.677000,-0.062300,0.307500,0.191800,-0.006328,-0.004646,0.342428,0.210000,0.409000,-10.080000
1779273326285230124,2026-05-20 16:05:26.284,-2.258000,1.218000,350.168000,-0.056700,0.308400,0.191000,-0.005583,-0.009746,0.337170,0.254000,0.394000,-10.156000
1779273326310202605,2026-05-20 16:05:26.309,-2.257000,1.230000,350.661000,-0.053000,0.307400,0.191200,-0.006438,-0.002875,0.340254,0.220000,0.209000,-10.312000
1779273326335136124,2026-05-20 16:05:26.334,-2.257000,1.241000,351.154000,-0.052000,0.309300,0.193400,-0.010993,-0.005647,0.343619,0.238000,0.071000,-10.189000
1779273326360226050,2026-05-20 16:05:26.359,-2.260000,1.253000,351.647000,-0.047400,0.310200,0.191500,-0.007526,-0.007021,0.342706,0.301000,0.259000,-10.166000
1779273326385300087,2026-05-20 16:05:26.384,-2.261000,1.265000,352.138000,-0.045500,0.309200,0.187200,-0.010964,-0.007351,0.343031,0.317000,0.112000,-10.209000
1779273326410159012,2026-05-20 16:05:26.409,-2.265000,1.274000,352.632000,-0.043700,0.309200,0.188400,-0.012050,-0.006464,0.343924,0.284000,0.192000,-10.217000
1779273326435086272,2026-05-20 16:05:26.434,-2.268000,1.284000,353.124000,-0.039900,0.310100,0.187500,-0.013049,-0.007880,0.342585,0.217000,0.225000,-10.104000
1779273326460191420,2026-05-20 16:05:26.459,-2.274000,1.293000,353.615000,-0.037000,0.313900,0.187600,-0.011442,-0.008733,0.341007,0.324000,0.408000,-10.148000
1779273326485329809,2026-05-20 16:05:26.484,-2.280000,1.301000,354.108000,-0.036100,0.314900,0.190900,-0.015797,-0.006969,0.342349,0.334000,0.349000,-10.115000
1779273326510143549,2026-05-20 16:05:26.509,-2.284000,1.305000,354.598000,-0.033300,0.313900,0.188900,-0.011405,-0.009877,0.340052,0.238000,0.416000,-10.089000
1779273326535090957,2026-05-20 16:05:26.534,-2.290000,1.310000,355.089000,-0.030600,0.310900,0.188000,-0.012137,-0.011899,0.341012,0.278000,0.526000,-10.156000
1779273326560077179,2026-05-20 16:05:26.559,-2.295000,1.314000,355.577000,-0.026800,0.310800,0.189300,-0.013247,-0.012689,0.338734,0.367000,0.458000,-10.071000
1779273326586294938,2026-05-20 16:05:26.584,-2.301000,1.314000,356.066000,-0.024900,0.312700,0.188300,-0.013068,-0.014124,0.335758,0.335000,0.439000,-10.082000
1779273326610111383,2026-05-20 16:05:26.609,-2.304000,1.314000,356.554000,-0.021200,0.314700,0.193900,-0.008177,-0.015177,0.335364,0.277000,0.429000,-10.104000
1779273326635048309,2026-05-20 16:05:26.634,-2.308000,1.313000,357.040000,-0.017500,0.312600,0.191900,-0.009944,-0.015274,0.335058,0.296000,0.504000,-10.179000
1779273326660055642,2026-05-20 16:05:26.659,-2.309000,1.311000,357.526000,-0.015600,0.314500,0.190900,-0.010055,-0.014322,0.333822,0.293000,0.395000,-10.054000
1779273326685045346,2026-05-20 16:05:26.684,-2.310000,1.305000,358.012000,-0.011900,0.310500,0.188900,-0.006216,-0.019483,0.333825,0.288000,0.450000,-10.139000
1779273326710097179,2026-05-20 16:05:26.709,-2.308000,1.300000,358.499000,-0.010000,0.313500,0.191200,-0.004572,-0.017992,0.335224,0.179000,0.446000,-10.205000
1779273326735200623,2026-05-20 16:05:26.734,-2.303000,1.297000,358.984000,-0.008200,0.311500,0.190200,-0.003584,-0.014604,0.334368,0.229000,0.540000,-10.210000
1779273326760144920,2026-05-20 16:05:26.759,-2.298000,1.294000,359.469000,-0.005300,0.313300,0.183800,-0.003542,-0.016394,0.330656,0.221000,0.333000,-10.193000
1779273326785080216,2026-05-20 16:05:26.784,-2.295000,1.291000,359.953000,-0.000700,0.313300,0.190600,-0.001778,-0.017093,0.333247,0.208000,0.321000,-10.230000
1779273326810189438,2026-05-20 16:05:26.809,-2.289000,1.288000,0.436000,0.002100,0.313200,0.190700,-0.004257,-0.013741,0.333822,0.285000,0.231000,-10.291000
1779273326835027586,2026-05-20 16:05:26.833,-2.283000,1.286000,0.921000,0.005000,0.316100,0.190800,-0.003388,-0.013379,0.336037,0.196000,0.273000,-10.111000
1779273326860128142,2026-05-20 16:05:26.859,-2.277000,1.286000,1.404000,0.009700,0.317000,0.190000,-0.006006,-0.013848,0.333427,0.248000,0.247000,-10.191000
1779273326885034438,2026-05-20 16:05:26.884,-2.274000,1.287000,1.887000,0.010700,0.320900,0.190000,-0.006255,-0.012523,0.333776,0.343000,0.300000,-10.276000
1779273326910074438,2026-05-20 16:05:26.909,-2.271000,1.286000,2.370000,0.011500,0.314000,0.190100,-0.008978,-0.012355,0.337323,0.196000,0.229000,-10.126000
1779273326935006660,2026-05-20 16:05:26.933,-2.269000,1.287000,2.852000,0.015300,0.319900,0.192400,-0.007746,-0.012160,0.335718,0.224000,0.464000,-10.151000
1779273326960012364,2026-05-20 16:05:26.958,-2.269000,1.290000,3.335000,0.017900,0.312000,0.195900,-0.010324,-0.012810,0.333414,0.323000,0.541000,-10.157000
1779273326985027734,2026-05-20 16:05:26.983,-2.269000,1.293000,3.814000,0.021600,0.310900,0.193900,-0.008610,-0.010231,0.330034,0.257000,0.399000,-10.082000
1779273327010154753,2026-05-20 16:05:27.009,-2.272000,1.297000,4.295000,0.022500,0.307900,0.192900,-0.010465,-0.010254,0.333025,0.213000,0.375000,-10.150000
1779273327035015494,2026-05-20 16:05:27.034,-2.274000,1.302000,4.776000,0.028200,0.310800,0.186700,-0.007031,-0.012117,0.332619,0.265000,0.466000,-10.188000
1779273327060009994,2026-05-20 16:05:27.059,-2.280000,1.306000,5.258000,0.028200,0.310800,0.189900,-0.010511,-0.008628,0.328988,0.312000,0.585000,-10.149000
1779273327085676549,2026-05-20 16:05:27.084,-2.282000,1.310000,5.736000,0.031000,0.310200,0.194000,-0.009337,-0.010024,0.325574,0.315000,0.306000,-10.201000
1779273327110105938,2026-05-20 16:05:27.109,-2.289000,1.315000,6.216000,0.034100,0.323900,0.193000,-0.009320,-0.010256,0.328543,0.167000,0.250000,-10.157000
1779273327134991512,2026-05-20 16:05:27.133,-2.292000,1.321000,6.691000,0.037700,0.315000,0.196500,-0.010909,-0.009046,0.326903,0.298000,0.239000,-10.209000
1779273327198395419,2026-05-20 16:05:27.197,-2.302000,1.327000,7.643000,0.043200,0.312900,0.190300,-0.012530,-0.011754,0.328773,0.216000,0.167000,-10.081000
1779273327210124938,2026-05-20 16:05:27.209,-2.309000,1.330000,8.119000,0.045000,0.310900,0.192600,-0.012501,-0.012281,0.328634,0.300000,0.518000,-10.197000
1779273327235014956,2026-05-20 16:05:27.233,-2.313000,1.333000,8.593000,0.047900,0.311800,0.194900,-0.015064,-0.011391,0.331003,0.276000,0.318000,-10.182000
1779273327260147105,2026-05-20 16:05:27.259,-2.317000,1.336000,9.067000,0.051700,0.314700,0.195100,-0.009751,-0.012768,0.327514,0.253000,0.394000,-10.012000
1779273327285016771,2026-05-20 16:05:27.283,-2.321000,1.339000,9.541000,0.051600,0.310800,0.195100,-0.013466,-0.012405,0.326746,0.299000,0.541000,-10.176000
1779273327310244364,2026-05-20 16:05:27.309,-2.323000,1.343000,10.014000,0.057100,0.309700,0.196500,-0.006434,-0.010037,0.327007,0.293000,0.528000,-10.228000
1779273327334945697,2026-05-20 16:05:27.333,-2.326000,1.345000,10.491000,0.057100,0.307700,0.197600,-0.010698,-0.012005,0.328099,0.161000,0.481000,-10.058000
1779273327359944308,2026-05-20 16:05:27.358,-2.325000,1.348000,10.967000,0.061700,0.306600,0.194600,-0.004766,-0.012187,0.326364,0.332000,0.212000,-10.258000
1779273327384937456,2026-05-20 16:05:27.383,-2.327000,1.349000,11.447000,0.064600,0.307600,0.194700,-0.005005,-0.013176,0.328160,0.305000,0.461000,-10.170000
1779273327410005586,2026-05-20 16:05:27.408,-2.324000,1.347000,11.926000,0.066400,0.308500,0.194800,-0.008056,-0.012778,0.331593,0.288000,0.180000,-10.075000
1779273327435099679,2026-05-20 16:05:27.434,-2.326000,1.344000,12.408000,0.069200,0.305500,0.192800,-0.008291,-0.016579,0.330430,0.226000,0.328000,-10.131000
1779273327459944382,2026-05-20 16:05:27.458,-2.324000,1.345000,12.888000,0.072000,0.304500,0.194000,-0.008945,-0.016843,0.332892,0.241000,0.136000,-10.215000
1779273327484981234,2026-05-20 16:05:27.483,-2.323000,1.342000,13.366000,0.073800,0.305400,0.193000,-0.005800,-0.014081,0.329704,0.344000,0.510000,-10.145000
1779273327509998678,2026-05-20 16:05:27.508,-2.320000,1.338000,13.848000,0.078400,0.301400,0.192200,-0.011816,-0.017482,0.332845,0.248000,0.298000,-10.079000
1779273327534958030,2026-05-20 16:05:27.533,-2.316000,1.334000,14.327000,0.078400,0.301400,0.192200,-0.003112,-0.018872,0.329287,0.288000,0.413000,-10.258000
1779273327560017623,2026-05-20 16:05:27.558,-2.314000,1.332000,14.809000,0.083000,0.299300,0.195700,-0.007023,-0.016572,0.333089,0.274000,0.574000,-10.216000
1779273327584927160,2026-05-20 16:05:27.583,-2.308000,1.327000,15.286000,0.081200,0.301300,0.193400,-0.003122,-0.013713,0.327734,0.197000,0.495000,-10.168000
1779273327609965012,2026-05-20 16:05:27.608,-2.305000,1.321000,15.768000,0.087700,0.301200,0.193800,-0.003652,-0.016862,0.329104,0.234000,0.317000,-10.103000
1779273327634937141,2026-05-20 16:05:27.633,-2.299000,1.316000,16.248000,0.091500,0.303100,0.193900,-0.000460,-0.020819,0.329463,0.344000,0.221000,-10.169000
1779273327659911104,2026-05-20 16:05:27.658,-2.297000,1.310000,16.728000,0.093400,0.305000,0.187500,-0.005424,-0.015381,0.329376,0.293000,0.416000,-10.226000
1779273327684970641,2026-05-20 16:05:27.683,-2.291000,1.305000,17.207000,0.094300,0.300100,0.190900,-0.007695,-0.014640,0.330267,0.208000,0.120000,-10.067000
1779273327709986549,2026-05-20 16:05:27.708,-2.290000,1.302000,17.685000,0.096100,0.301100,0.193100,-0.003094,-0.018353,0.328695,0.239000,0.305000,-10.157000
1779273327734962456,2026-05-20 16:05:27.733,-2.286000,1.299000,18.160000,0.099800,0.298000,0.194400,-0.010118,-0.016772,0.331121,0.356000,0.313000,-10.211000
1779273327759892086,2026-05-20 16:05:27.758,-2.284000,1.295000,18.637000,0.103500,0.295000,0.194600,-0.006512,-0.012220,0.326765,0.216000,0.467000,-10.083000
1779273327785237104,2026-05-20 16:05:27.783,-2.281000,1.294000,19.115000,0.105400,0.297900,0.195800,-0.006464,-0.013399,0.330949,0.123000,0.345000,-10.172000
1779273327809972141,2026-05-20 16:05:27.808,-2.280000,1.298000,19.593000,0.108100,0.293900,0.196000,-0.003293,-0.013470,0.325836,0.361000,0.636000,-10.234000
1779273327834968456,2026-05-20 16:05:27.833,-2.282000,1.300000,20.074000,0.110900,0.294800,0.174400,-0.010496,-0.008661,0.328755,0.253000,0.373000,-10.134000
1779273327859939289,2026-05-20 16:05:27.858,-2.282000,1.302000,20.552000,0.112700,0.290900,0.195100,-0.005250,-0.008132,0.327735,0.189000,0.162000,-10.147000
1779273327884847845,2026-05-20 16:05:27.883,-2.286000,1.309000,21.033000,0.115500,0.290800,0.192000,-0.007005,-0.010321,0.326705,0.252000,0.426000,-10.119000
1779273327909872586,2026-05-20 16:05:27.908,-2.287000,1.320000,21.511000,0.116500,0.292800,0.188800,-0.010517,-0.005492,0.329988,0.312000,0.236000,-10.164000
1779273327934917678,2026-05-20 16:05:27.933,-2.291000,1.332000,21.989000,0.121100,0.291700,0.192300,-0.011752,-0.001511,0.329769,0.298000,0.216000,-10.139000
1779273327959837882,2026-05-20 16:05:27.958,-2.293000,1.345000,22.465000,0.121100,0.288800,0.189100,-0.013655,-0.006370,0.332210,0.304000,0.192000,-10.125000
1779273327984898493,2026-05-20 16:05:27.983,-2.299000,1.361000,22.945000,0.124800,0.291600,0.190300,-0.010517,-0.002884,0.330912,0.261000,0.466000,-10.187000
1779273328009878808,2026-05-20 16:05:28.008,-2.301000,1.378000,23.426000,0.129400,0.286600,0.193900,-0.014310,-0.000766,0.334350,0.238000,0.509000,-10.215000
1779273328034955900,2026-05-20 16:05:28.033,-2.302000,1.396000,23.904000,0.130400,0.290600,0.193900,-0.007098,0.000160,0.329335,0.247000,0.464000,-10.136000
1779273328059855882,2026-05-20 16:05:28.058,-2.306000,1.412000,24.383000,0.134100,0.288500,0.173400,-0.009381,-0.005965,0.329731,0.281000,0.415000,-10.154000
1779273328084855215,2026-05-20 16:05:28.083,-2.306000,1.427000,24.861000,0.136000,0.290500,0.195300,-0.007076,-0.003456,0.328746,0.395000,0.313000,-10.239000
1779273328109872215,2026-05-20 16:05:28.108,-2.308000,1.440000,25.336000,0.137700,0.282600,0.197600,-0.008044,-0.000608,0.326746,0.308000,0.356000,-10.047000
1779273328134869937,2026-05-20 16:05:28.133,-2.306000,1.452000,25.805000,0.142500,0.284500,0.195100,-0.006416,-0.007173,0.321703,0.318000,0.110000,-10.139000
1779273328198210548,2026-05-20 16:05:28.197,-2.305000,1.467000,26.724000,0.144300,0.282500,0.195200,-0.010433,-0.006774,0.316407,0.318000,0.129000,-10.178000
1779273328209842993,2026-05-20 16:05:28.208,-2.303000,1.472000,27.170000,0.147100,0.282500,0.195400,-0.007599,-0.009352,0.306627,0.336000,0.364000,-10.101000
1779273328234915511,2026-05-20 16:05:28.233,-2.297000,1.476000,27.606000,0.148900,0.279500,0.195500,-0.007265,-0.011851,0.300712,0.315000,0.340000,-10.180000
1779273328259803308,2026-05-20 16:05:28.258,-2.292000,1.475000,28.035000,0.150700,0.274500,0.194500,-0.003898,-0.013966,0.295422,0.365000,0.439000,-10.156000
1779273328284817697,2026-05-20 16:05:28.283,-2.286000,1.472000,28.457000,0.150700,0.278500,0.193400,-0.002074,-0.014096,0.284337,0.300000,0.507000,-10.069000
1779273328309834437,2026-05-20 16:05:28.308,-2.280000,1.468000,28.868000,0.157200,0.273400,0.194900,-0.000286,-0.016720,0.279563,0.306000,0.471000,-10.110000
1779273328334728196,2026-05-20 16:05:28.333,-2.273000,1.460000,29.274000,0.156200,0.273400,0.193800,-0.001161,-0.020277,0.276528,0.357000,0.386000,-10.178000
1779273328359780622,2026-05-20 16:05:28.358,-2.266000,1.448000,29.673000,0.160000,0.275300,0.193900,0.000010,-0.018371,0.270188,0.324000,0.318000,-10.159000
1779273328384816437,2026-05-20 16:05:28.383,-2.259000,1.433000,30.064000,0.161800,0.270400,0.195200,-0.003215,-0.022032,0.265291,0.305000,0.347000,-10.159000
1779273328409834196,2026-05-20 16:05:28.408,-2.252000,1.417000,30.448000,0.163700,0.273300,0.194100,-0.003734,-0.025066,0.262017,0.308000,0.242000,-10.154000
1779273328434807752,2026-05-20 16:05:28.433,-2.247000,1.398000,30.825000,0.165500,0.270300,0.196400,-0.004329,-0.026354,0.257815,0.312000,0.374000,-10.216000
1779273328459770345,2026-05-20 16:05:28.458,-2.242000,1.375000,31.195000,0.168300,0.269200,0.177000,-0.003147,-0.027502,0.251725,0.312000,0.436000,-10.124000
1779273328484794622,2026-05-20 16:05:28.483,-2.236000,1.353000,31.554000,0.168200,0.265300,0.174900,-0.003012,-0.025635,0.246426,0.265000,0.407000,-10.108000
1779273328509802289,2026-05-20 16:05:28.508,-2.230000,1.339000,31.904000,0.171900,0.265300,0.195700,-0.002624,-0.018479,0.239910,0.378000,0.385000,-10.148000
1779273328534750085,2026-05-20 16:05:28.533,-2.226000,1.340000,32.248000,0.171900,0.263300,0.194600,-0.002217,-0.004188,0.232284,0.238000,0.394000,-10.139000
1779273328559832585,2026-05-20 16:05:28.558,-2.220000,1.360000,32.582000,0.172900,0.269100,0.177300,-0.003457,0.007228,0.228365,0.339000,0.292000,-10.070000
1779273328584756511,2026-05-20 16:05:28.583,-2.216000,1.401000,32.908000,0.175600,0.262300,0.195900,-0.003500,0.021419,0.223905,0.423000,0.319000,-10.070000
1779273328609770456,2026-05-20 16:05:28.608,-2.217000,1.461000,33.236000,0.176600,0.268100,0.187200,-0.009714,0.036855,0.224121,0.395000,0.216000,-10.066000
1779273328634709530,2026-05-20 16:05:28.633,-2.221000,1.541000,33.557000,0.180300,0.264100,0.198300,-0.009927,0.050249,0.218847,0.487000,0.299000,-10.100000
1779273328659779548,2026-05-20 16:05:28.658,-2.224000,1.638000,33.868000,0.179300,0.261200,0.195000,-0.009413,0.060258,0.214086,0.448000,0.460000,-10.117000
1779273328684723881,2026-05-20 16:05:28.683,-2.228000,1.741000,34.176000,0.180200,0.261100,0.175500,-0.011691,0.061044,0.212410,0.486000,0.289000,-10.164000
1779273328709744974,2026-05-20 16:05:28.708,-2.236000,1.850000,34.480000,0.182100,0.261100,0.177800,-0.013213,0.068343,0.207796,0.637000,0.359000,-10.086000
1779273328734702604,2026-05-20 16:05:28.733,-2.244000,1.973000,34.771000,0.181200,0.264100,0.192900,-0.010060,0.081706,0.197450,0.685000,0.426000,-10.083000
1779273328759757659,2026-05-20 16:05:28.758,-2.253000,2.108000,35.048000,0.182100,0.263000,0.173400,-0.013716,0.092442,0.189846,0.716000,0.383000,-10.077000
1779273328784715937,2026-05-20 16:05:28.783,-2.261000,2.260000,35.314000,0.182000,0.259100,0.177800,-0.014215,0.099266,0.181996,0.789000,0.370000,-10.068000
1779273328809726400,2026-05-20 16:05:28.808,-2.270000,2.443000,35.563000,0.182900,0.258200,0.200700,-0.011351,0.131664,0.173050,0.884000,0.261000,-10.137000
1779273328834658530,2026-05-20 16:05:28.833,-2.278000,2.668000,35.792000,0.184700,0.255200,0.200800,-0.013385,0.164827,0.155116,1.223000,0.475000,-10.048000
1779273328859929326,2026-05-20 16:05:28.858,-2.287000,2.939000,35.992000,0.182900,0.254200,0.183300,-0.009072,0.193206,0.137920,0.721000,0.660000,-10.004000
1779273328884843307,2026-05-20 16:05:28.883,-2.292000,3.241000,36.164000,0.183800,0.254200,0.198600,-0.010087,0.209091,0.118199,1.544000,0.387000,-10.274000
1779273328909687641,2026-05-20 16:05:28.908,-2.299000,3.550000,36.320000,0.183700,0.251200,0.182300,-0.008253,0.217205,0.110460,1.558000,0.512000,-10.073000
1779273328934767789,2026-05-20 16:05:28.933,-2.304000,3.858000,36.458000,0.181900,0.253200,0.184400,-0.009665,0.215654,0.094860,1.272000,0.514000,-10.037000
1779273328959740622,2026-05-20 16:05:28.958,-2.306000,4.178000,36.579000,0.181100,0.258200,0.185400,-0.005420,0.218799,0.085150,1.784000,0.593000,-10.149000
1779273328984819900,2026-05-20 16:05:28.983,-2.309000,4.495000,36.678000,0.179100,0.251300,0.184300,-0.008130,0.209979,0.073452,1.571000,0.409000,-10.234000
1779273329009731344,2026-05-20 16:05:29.008,-2.312000,4.779000,36.770000,0.178200,0.253300,0.178800,-0.005652,0.186562,0.066162,2.148000,0.477000,-10.198000
1779273329034695289,2026-05-20 16:05:29.033,-2.310000,5.021000,36.847000,0.179100,0.253300,0.187500,-0.002061,0.156081,0.054551,1.600000,0.410000,-10.145000
1779273329059744752,2026-05-20 16:05:29.058,-2.303000,5.231000,36.916000,0.177200,0.253300,0.185200,0.000966,0.131295,0.049118,2.103000,0.507000,-10.280000
1779273329084860640,2026-05-20 16:05:29.083,-2.300000,5.409000,36.973000,0.176300,0.251400,0.185200,-0.002382,0.111752,0.042799,1.823000,0.354000,-10.306000
1779273329109717270,2026-05-20 16:05:29.108,-2.296000,5.538000,37.020000,0.178200,0.253300,0.187400,-0.000542,0.078697,0.032881,2.169000,0.452000,-10.258000
1779273329134663363,2026-05-20 16:05:29.133,-2.288000,5.609000,37.056000,0.176300,0.254400,0.204700,0.006195,0.034417,0.023281,1.875000,0.444000,-10.162000
1779273329198185103,2026-05-20 16:05:29.197,-2.266000,5.614000,37.099000,0.176500,0.260200,0.187300,0.008104,-0.021320,0.007950,2.006000,0.341000,-10.190000
1779273329209899474,2026-05-20 16:05:29.208,-2.257000,5.547000,37.097000,0.176300,0.254400,0.203700,0.005606,-0.056488,-0.010585,1.838000,0.425000,-10.054000
1779273329235664474,2026-05-20 16:05:29.234,-2.247000,5.431000,37.078000,0.180000,0.250300,0.187600,0.008315,-0.093436,-0.022094,2.290000,0.445000,-10.108000
1779273329259634622,2026-05-20 16:05:29.258,-2.234000,5.272000,37.047000,0.178200,0.254300,0.187400,0.014939,-0.118373,-0.029865,1.664000,0.291000,-10.023000
1779273329285908085,2026-05-20 16:05:29.284,-2.220000,5.084000,36.997000,0.178100,0.250400,0.185300,0.013160,-0.134582,-0.046012,1.475000,0.503000,-10.153000
1779273329309697548,2026-05-20 16:05:29.308,-2.206000,4.867000,36.926000,0.180000,0.253300,0.185400,0.012841,-0.157527,-0.059907,2.098000,0.491000,-10.090000
1779273329334712326,2026-05-20 16:05:29.333,-2.197000,4.628000,36.840000,0.180000,0.252300,0.184300,0.011736,-0.173261,-0.072606,1.865000,0.201000,-9.837000
1779273329359689696,2026-05-20 16:05:29.358,-2.189000,4.374000,36.744000,0.180100,0.255200,0.182100,0.014963,-0.178699,-0.080223,0.963000,0.318000,-10.097000
1779273329385939344,2026-05-20 16:05:29.384,-2.175000,4.114000,36.633000,0.179100,0.252300,0.190800,0.013973,-0.177085,-0.090043,1.419000,0.493000,-10.177000
1779273329410631640,2026-05-20 16:05:29.409,-2.161000,3.856000,36.511000,0.183000,0.258100,0.181100,0.012075,-0.174457,-0.092900,1.701000,0.360000,-9.751000
1779273329435539288,2026-05-20 16:05:29.434,-2.154000,3.605000,36.384000,0.182000,0.255200,0.182200,0.008449,-0.170851,-0.094749,0.873000,0.123000,-10.022000
1779273329460559492,2026-05-20 16:05:29.459,-2.148000,3.366000,36.254000,0.182900,0.255200,0.175700,0.008913,-0.159111,-0.101807,1.001000,0.432000,-10.355000
1779273329485956288,2026-05-20 16:05:29.484,-2.137000,3.148000,36.124000,0.182000,0.255200,0.176800,0.014252,-0.143724,-0.099916,1.159000,0.270000,-9.787000
1779273329510668325,2026-05-20 16:05:29.509,-2.129000,2.958000,35.993000,0.182000,0.256200,0.181100,0.008492,-0.122926,-0.095873,0.683000,0.203000,-9.838000
1779273329535576011,2026-05-20 16:05:29.534,-2.125000,2.800000,35.866000,0.183800,0.254200,0.180100,0.003454,-0.097795,-0.094419,1.223000,0.418000,-10.185000
1779273329560650122,2026-05-20 16:05:29.559,-2.122000,2.676000,35.736000,0.183800,0.256200,0.197500,0.008411,-0.070562,-0.091684,0.672000,0.198000,-9.729000
1779273329585895770,2026-05-20 16:05:29.584,-2.120000,2.596000,35.610000,0.182900,0.257200,0.199600,0.003533,-0.041529,-0.089731,0.921000,0.343000,-9.937000
1779273329610634603,2026-05-20 16:05:29.609,-2.118000,2.562000,35.490000,0.181100,0.257200,0.179900,0.006561,-0.009047,-0.085579,1.044000,0.307000,-10.241000
1779273329635695844,2026-05-20 16:05:29.634,-2.116000,2.567000,35.371000,0.179100,0.254300,0.198400,0.004610,0.018184,-0.085477,0.316000,0.233000,-9.914000
1779273329660650381,2026-05-20 16:05:29.659,-2.117000,2.615000,35.251000,0.180200,0.260100,0.179900,0.002263,0.046757,-0.086540,1.230000,0.328000,-10.140000
1779273329685910362,2026-05-20 16:05:29.684,-2.120000,2.702000,35.138000,0.180100,0.255200,0.181000,0.004605,0.073828,-0.079153,0.859000,0.267000,-9.961000
1779273329709606566,2026-05-20 16:05:29.708,-2.122000,2.825000,35.028000,0.181200,0.261100,0.181000,0.001056,0.097040,-0.078177,0.819000,0.170000,-10.184000
1779273329735616603,2026-05-20 16:05:29.734,-2.122000,2.980000,34.919000,0.180200,0.261200,0.200500,0.003094,0.117775,-0.069997,1.243000,0.211000,-10.168000
1779273329759637585,2026-05-20 16:05:29.758,-2.125000,3.157000,34.810000,0.179200,0.256200,0.181000,-0.001049,0.130364,-0.071566,0.867000,0.254000,-9.961000
1779273329785751140,2026-05-20 16:05:29.784,-2.131000,3.351000,34.708000,0.175600,0.262300,0.203500,-0.001512,0.142273,-0.073429,1.361000,0.384000,-10.181000
1779273329810709196,2026-05-20 16:05:29.809,-2.133000,3.557000,34.607000,0.173600,0.258400,0.197000,0.004967,0.149683,-0.066226,1.372000,0.337000,-10.001000
1779273329835540251,2026-05-20 16:05:29.834,-2.133000,3.774000,34.504000,0.171900,0.263300,0.199000,0.004486,0.153832,-0.063354,0.962000,0.234000,-10.203000
1779273329860562807,2026-05-20 16:05:29.859,-2.135000,3.995000,34.406000,0.172800,0.265200,0.182700,0.001446,0.155837,-0.063419,1.589000,0.470000,-10.174000
1779273329885733640,2026-05-20 16:05:29.884,-2.139000,4.213000,34.312000,0.171900,0.266300,0.203300,0.002743,0.150460,-0.058283,1.640000,0.336000,-9.961000
1779273329909543899,2026-05-20 16:05:29.908,-2.143000,4.420000,34.221000,0.167200,0.261400,0.198800,0.003520,0.140614,-0.055862,1.129000,0.224000,-10.147000
1779273329935523455,2026-05-20 16:05:29.934,-2.145000,4.611000,34.138000,0.165400,0.265400,0.201900,0.000804,0.125713,-0.055036,1.809000,0.358000,-10.221000
1779273329959607714,2026-05-20 16:05:29.958,-2.146000,4.774000,34.057000,0.165300,0.262400,0.180200,0.003828,0.107955,-0.049482,1.598000,0.331000,-9.930000
1779273329985893881,2026-05-20 16:05:29.984,-2.147000,4.904000,33.982000,0.164600,0.272300,0.204000,0.004106,0.079078,-0.045907,1.425000,0.195000,-10.226000
1779273330010593177,2026-05-20 16:05:30.009,-2.148000,4.996000,33.908000,0.166200,0.261400,0.186800,0.003563,0.050817,-0.047085,1.714000,0.373000,-10.270000
1779273330035500677,2026-05-20 16:05:30.034,-2.146000,5.054000,33.841000,0.164400,0.261500,0.204100,0.005362,0.031284,-0.043960,1.503000,0.244000,-9.838000
1779273330059460158,2026-05-20 16:05:30.058,-2.146000,5.071000,33.776000,0.163500,0.266400,0.204000,0.002184,0.000198,-0.047485,1.701000,0.404000,-10.113000
1779273330086742362,2026-05-20 16:05:30.084,-2.143000,5.046000,33.715000,0.163400,0.261500,0.200700,0.006269,-0.029005,-0.044079,1.528000,0.368000,-10.151000
1779273330110643640,2026-05-20 16:05:30.109,-2.144000,4.980000,33.659000,0.164400,0.264500,0.204000,0.002658,-0.058840,-0.042778,1.406000,0.270000,-10.008000
1779273330135542547,2026-05-20 16:05:30.134,-2.140000,4.874000,33.601000,0.164400,0.262400,0.184500,0.005716,-0.084571,-0.041369,1.546000,0.389000,-10.158000
1779273330197952806,2026-05-20 16:05:30.196,-2.130000,4.567000,33.490000,0.163400,0.259500,0.198600,0.005707,-0.124025,-0.043550,1.337000,0.389000,-9.984000
1779273330210574436,2026-05-20 16:05:30.209,-2.129000,4.377000,33.439000,0.164400,0.263500,0.201900,0.001913,-0.137235,-0.042347,1.172000,0.341000,-10.086000
1779273330235506344,2026-05-20 16:05:30.234,-2.124000,4.168000,33.388000,0.166200,0.262400,0.198700,0.006311,-0.151853,-0.039085,0.913000,0.303000,-10.229000
1779273330260673714,2026-05-20 16:05:30.259,-2.118000,3.943000,33.336000,0.165400,0.266300,0.180200,0.005705,-0.161259,-0.041987,0.920000,0.332000,-10.141000
1779273330287569973,2026-05-20 16:05:30.284,-2.113000,3.711000,33.289000,0.166400,0.269300,0.178000,0.006459,-0.159534,-0.040313,0.617000,0.382000,-10.062000
1779273330310598140,2026-05-20 16:05:30.309,-2.110000,3.485000,33.244000,0.166300,0.264400,0.196500,0.001841,-0.153954,-0.039063,0.878000,0.436000,-10.110000
1779273330335449455,2026-05-20 16:05:30.334,-2.109000,3.275000,33.196000,0.169100,0.265300,0.191200,0.003189,-0.140302,-0.040371,0.623000,0.251000,-10.116000
1779273330360428380,2026-05-20 16:05:30.359,-2.110000,3.082000,33.151000,0.169100,0.266300,0.198800,0.001164,-0.126581,-0.038625,0.586000,0.160000,-10.188000
1779273330385502917,2026-05-20 16:05:30.384,-2.112000,2.907000,33.108000,0.167200,0.262300,0.172700,-0.000160,-0.116955,-0.039818,0.318000,0.380000,-10.138000
1779273330410640103,2026-05-20 16:05:30.409,-2.113000,2.750000,33.064000,0.171900,0.265300,0.196800,0.002478,-0.103211,-0.037971,0.249000,0.317000,-10.246000
1779273330435503195,2026-05-20 16:05:30.434,-2.115000,2.615000,33.020000,0.172000,0.269200,0.196800,-0.003217,-0.083853,-0.034880,0.564000,0.381000,-10.177000
1779273330460410714,2026-05-20 16:05:30.459,-2.120000,2.516000,32.977000,0.172000,0.267200,0.177200,-0.001002,-0.057223,-0.037295,0.250000,0.323000,-10.113000
1779273330485495992,2026-05-20 16:05:30.484,-2.128000,2.461000,32.934000,0.172000,0.268200,0.178300,-0.003329,-0.027030,-0.031454,0.329000,0.292000,-10.260000
1779273330510616454,2026-05-20 16:05:30.509,-2.137000,2.441000,32.890000,0.170900,0.263300,0.193500,-0.008080,-0.003746,-0.032879,0.270000,0.323000,-10.256000
1779273330535409954,2026-05-20 16:05:30.534,-2.146000,2.444000,32.847000,0.170100,0.267300,0.189100,-0.001965,0.010781,-0.035015,0.068000,0.345000,-10.174000
1779273330560518047,2026-05-20 16:05:30.559,-2.155000,2.467000,32.804000,0.171100,0.268200,0.177200,-0.004134,0.018846,-0.030539,0.597000,0.380000,-10.241000
1779273330586181047,2026-05-20 16:05:30.584,-2.162000,2.514000,32.761000,0.170200,0.272100,0.176000,-0.005421,0.042940,-0.029935,0.441000,0.385000,-10.136000
1779273330610531047,2026-05-20 16:05:30.609,-2.169000,2.587000,32.715000,0.168200,0.265400,0.197700,-0.001231,0.063465,-0.029719,0.213000,0.249000,-10.149000
1779273330635403788,2026-05-20 16:05:30.634,-2.179000,2.684000,32.675000,0.169100,0.266300,0.177100,-0.008756,0.072089,-0.028386,0.431000,0.391000,-10.227000
1779273330660618603,2026-05-20 16:05:30.659,-2.188000,2.794000,32.632000,0.166300,0.265300,0.182400,-0.003305,0.076803,-0.029167,0.425000,0.452000,-10.159000
1779273330685448677,2026-05-20 16:05:30.684,-2.191000,2.901000,32.590000,0.167400,0.271300,0.200900,0.001193,0.078799,-0.028961,0.774000,0.358000,-10.104000
1779273330710550732,2026-05-20 16:05:30.709,-2.192000,3.007000,32.548000,0.166300,0.263400,0.181300,0.001741,0.071421,-0.026910,0.737000,0.453000,-10.091000
1779273330735428010,2026-05-20 16:05:30.734,-2.192000,3.114000,32.509000,0.164400,0.263400,0.179000,0.002307,0.075345,-0.024417,0.513000,0.318000,-10.216000
1779273330760342565,2026-05-20 16:05:30.759,-2.193000,3.219000,32.473000,0.163500,0.263400,0.176800,0.001307,0.077208,-0.023051,0.626000,0.221000,-10.182000
1779273330785413102,2026-05-20 16:05:30.784,-2.193000,3.317000,32.439000,0.163500,0.265400,0.180100,0.001974,0.064512,-0.022730,0.744000,0.486000,-10.026000
1779273330810525158,2026-05-20 16:05:30.809,-2.187000,3.398000,32.400000,0.163500,0.264400,0.183300,0.008513,0.043213,-0.026728,0.903000,0.337000,-10.153000
1779273330835423602,2026-05-20 16:05:30.834,-2.177000,3.444000,32.359000,0.163500,0.264400,0.179000,0.008599,0.028562,-0.025292,1.041000,0.279000,-10.135000
1779273330860381880,2026-05-20 16:05:30.859,-2.166000,3.462000,32.322000,0.161700,0.265400,0.181100,0.009643,0.008159,-0.029178,0.579000,0.448000,-10.073000
1779273330885440010,2026-05-20 16:05:30.884,-2.154000,3.472000,32.283000,0.162700,0.269400,0.199600,0.011680,0.000735,-0.027218,0.647000,0.236000,-10.233000
1779273330910589325,2026-05-20 16:05:30.909,-2.143000,3.472000,32.241000,0.163500,0.266400,0.196400,0.006970,0.000471,-0.028923,0.959000,0.265000,-10.135000
1779273330935391899,2026-05-20 16:05:30.934,-2.133000,3.453000,32.204000,0.162600,0.266400,0.176700,0.009379,-0.018480,-0.029786,0.684000,0.448000,-10.046000
1779273330960347547,2026-05-20 16:05:30.959,-2.123000,3.408000,32.169000,0.161700,0.268400,0.196200,0.008814,-0.043770,-0.028191,0.664000,0.270000,-10.289000
1779273330985370380,2026-05-20 16:05:30.984,-2.111000,3.335000,32.135000,0.163700,0.272300,0.195200,0.006862,-0.056402,-0.025352,0.922000,0.173000,-10.238000
1779273331010400399,2026-05-20 16:05:31.009,-2.101000,3.242000,32.099000,0.161700,0.268400,0.197300,0.006388,-0.062538,-0.027235,0.616000,0.472000,-9.897000
1779273331035464899,2026-05-20 16:05:31.034,-2.094000,3.150000,32.065000,0.162700,0.271400,0.195200,0.004799,-0.068567,-0.028218,0.530000,0.333000,-10.158000
1779273331060385269,2026-05-20 16:05:31.059,-2.092000,3.062000,32.028000,0.161700,0.265500,0.196300,0.002530,-0.059591,-0.028646,0.646000,0.247000,-10.288000
1779273331085378510,2026-05-20 16:05:31.084,-2.092000,2.964000,31.988000,0.163700,0.274300,0.194100,0.000801,-0.065071,-0.031456,0.605000,0.419000,-10.016000
1779273331110420528,2026-05-20 16:05:31.109,-2.093000,2.859000,31.948000,0.163600,0.269300,0.173500,0.001293,-0.081651,-0.029848,0.483000,0.275000,-10.196000
1779273331135396602,2026-05-20 16:05:31.134,-2.096000,2.747000,31.913000,0.164500,0.269400,0.195300,-0.001888,-0.077261,-0.030055,0.456000,0.121000,-10.311000
1779273331198947306,2026-05-20 16:05:31.197,-2.107000,2.548000,31.840000,0.164500,0.269300,0.190900,-0.006710,-0.061843,-0.027921,0.380000,0.522000,-9.989000
1779273331210424824,2026-05-20 16:05:31.209,-2.118000,2.475000,31.807000,0.162700,0.269400,0.195200,-0.007946,-0.046499,-0.027278,0.411000,0.253000,-10.307000
1779273331235326676,2026-05-20 16:05:31.234,-2.132000,2.404000,31.773000,0.165400,0.267400,0.193200,-0.009032,-0.043149,-0.026313,0.278000,0.363000,-10.169000
1779273331260308843,2026-05-20 16:05:31.259,-2.142000,2.342000,31.743000,0.165500,0.270300,0.189900,-0.005393,-0.044359,-0.022761,0.346000,0.478000,-10.007000
1779273331285334621,2026-05-20 16:05:31.284,-2.153000,2.296000,31.716000,0.162600,0.267400,0.194100,-0.005892,-0.027451,-0.021903,0.425000,0.291000,-10.264000
1779273331310330417,2026-05-20 16:05:31.309,-2.168000,2.269000,31.694000,0.164500,0.267300,0.175700,-0.011689,-0.005684,-0.018113,0.216000,0.260000,-10.041000
1779273331335435565,2026-05-20 16:05:31.334,-2.187000,2.266000,31.672000,0.165400,0.265400,0.195400,-0.013417,0.000635,-0.016802,0.282000,0.470000,-10.080000
1779273331360321065,2026-05-20 16:05:31.359,-2.205000,2.280000,31.653000,0.165500,0.272200,0.174700,-0.009891,0.012770,-0.017326,0.322000,0.315000,-10.322000
1779273331385388176,2026-05-20 16:05:31.384,-2.220000,2.298000,31.635000,0.167400,0.273200,0.173700,-0.009408,0.017128,-0.013847,0.390000,0.240000,-10.168000
1779273331410346584,2026-05-20 16:05:31.409,-2.231000,2.320000,31.613000,0.166400,0.271300,0.195400,-0.008271,0.016223,-0.015166,0.502000,0.427000,-10.098000
1779273331435378139,2026-05-20 16:05:31.434,-2.242000,2.350000,31.593000,0.163600,0.271300,0.194100,-0.006224,0.024927,-0.017923,0.195000,0.363000,-10.165000
1779273331460266287,2026-05-20 16:05:31.459,-2.253000,2.395000,31.577000,0.162600,0.266400,0.194100,-0.007213,0.039738,-0.011176,0.337000,0.353000,-10.081000
1779273331485230898,2026-05-20 16:05:31.484,-2.263000,2.459000,31.561000,0.164600,0.270400,0.199600,-0.006661,0.047597,-0.010886,0.544000,0.426000,-10.061000
1779273331510302250,2026-05-20 16:05:31.509,-2.271000,2.532000,31.545000,0.165500,0.269300,0.195300,-0.003406,0.049861,-0.010818,0.418000,0.452000,-10.152000
1779273331535408954,2026-05-20 16:05:31.534,-2.274000,2.596000,31.528000,0.164600,0.271300,0.194200,0.000018,0.042187,-0.013641,0.431000,0.383000,-10.237000
1779273331560375639,2026-05-20 16:05:31.559,-2.273000,2.649000,31.515000,0.164600,0.273200,0.177900,0.004238,0.036787,-0.009019,0.473000,0.347000,-10.146000
1779273331585381435,2026-05-20 16:05:31.584,-2.270000,2.700000,31.500000,0.161700,0.269300,0.175600,0.002645,0.038627,-0.009634,0.515000,0.323000,-10.064000
1779273331610344343,2026-05-20 16:05:31.609,-2.265000,2.755000,31.487000,0.161800,0.270300,0.177700,0.003014,0.041292,-0.008703,0.359000,0.337000,-10.096000
1779273331635320509,2026-05-20 16:05:31.634,-2.260000,2.815000,31.471000,0.160700,0.266400,0.189700,0.002639,0.041965,-0.008871,0.538000,0.417000,-10.124000
1779273331660292435,2026-05-20 16:05:31.659,-2.253000,2.868000,31.459000,0.159900,0.268400,0.178800,0.006001,0.033085,-0.004756,0.714000,0.378000,-10.159000
1779273331685214194,2026-05-20 16:05:31.684,-2.242000,2.906000,31.448000,0.162700,0.272300,0.180000,0.007734,0.020787,-0.003611,0.579000,0.411000,-10.149000
1779273331710255102,2026-05-20 16:05:31.709,-2.225000,2.931000,31.438000,0.161700,0.267400,0.196300,0.014640,0.017248,-0.010834,0.495000,0.450000,-10.217000
1779273331735344694,2026-05-20 16:05:31.734,-2.209000,2.953000,31.428000,0.159800,0.266400,0.178800,0.012759,0.015320,-0.006559,0.492000,0.329000,-10.049000
1779273331760315417,2026-05-20 16:05:31.759,-2.196000,2.975000,31.421000,0.160800,0.270400,0.191800,0.005042,0.011396,-0.005202,0.723000,0.139000,-10.091000
1779273331785213398,2026-05-20 16:05:31.784,-2.186000,2.988000,31.412000,0.161800,0.270400,0.199500,0.006831,0.007290,-0.007006,0.535000,0.356000,-10.093000
1779273331810322491,2026-05-20 16:05:31.809,-2.169000,2.989000,31.404000,0.162700,0.271400,0.199500,0.012525,-0.003369,-0.009265,0.585000,0.410000,-10.062000
1779273331835237287,2026-05-20 16:05:31.834,-2.151000,2.979000,31.397000,0.159000,0.270500,0.199300,0.012796,-0.014246,-0.004368,0.595000,0.274000,-10.256000
1779273331860254676,2026-05-20 16:05:31.859,-2.135000,2.957000,31.391000,0.157100,0.270400,0.178600,0.007636,-0.014601,-0.004852,0.582000,0.372000,-10.124000
1779273331885267176,2026-05-20 16:05:31.884,-2.122000,2.935000,31.386000,0.158000,0.267400,0.178700,0.009716,-0.014584,-0.008646,0.401000,0.457000,-10.114000
1779273331910248268,2026-05-20 16:05:31.909,-2.109000,2.920000,31.378000,0.159900,0.269400,0.199400,0.011116,-0.009094,-0.007706,0.391000,0.284000,-10.186000
1779273331935308324,2026-05-20 16:05:31.934,-2.100000,2.907000,31.375000,0.158000,0.268400,0.177600,0.004169,-0.006745,-0.001884,0.603000,0.104000,-10.243000
1779273331960253380,2026-05-20 16:05:31.959,-2.093000,2.890000,31.370000,0.159000,0.270500,0.201500,0.001844,-0.013706,-0.003156,0.605000,0.510000,-10.017000
1779273331985189657,2026-05-20 16:05:31.984,-2.087000,2.869000,31.366000,0.159800,0.266500,0.196200,0.006971,-0.018500,-0.004629,0.518000,0.376000,-10.273000
1779273332010217398,2026-05-20 16:05:32.009,-2.082000,2.850000,31.366000,0.159800,0.264500,0.195100,0.003100,-0.010121,-0.002696,0.320000,0.175000,-10.157000
1779273332035278361,2026-05-20 16:05:32.034,-2.080000,2.835000,31.363000,0.160800,0.269400,0.197300,-0.000528,-0.007744,-0.003141,0.504000,0.427000,-10.123000
1779273332060231046,2026-05-20 16:05:32.059,-2.080000,2.828000,31.358000,0.159800,0.268500,0.196100,-0.000190,-0.004631,-0.005644,0.581000,0.414000,-10.068000
1779273332085157046,2026-05-20 16:05:32.084,-2.082000,2.825000,31.351000,0.159900,0.271400,0.188500,-0.001332,-0.002206,-0.006510,0.586000,0.333000,-10.190000
1779273332110193120,2026-05-20 16:05:32.109,-2.086000,2.822000,31.345000,0.161800,0.271300,0.179900,-0.001418,-0.001053,-0.003527,0.358000,0.223000,-10.239000
1779273332135240472,2026-05-20 16:05:32.134,-2.090000,2.816000,31.340000,0.162700,0.271300,0.177800,-0.004783,-0.003919,-0.003434,0.416000,0.326000,-10.208000
1779273332198763768,2026-05-20 16:05:32.197,-2.098000,2.821000,31.325000,0.159900,0.270400,0.190700,-0.003455,0.007056,-0.007567,0.566000,0.362000,-10.103000
1779273332210212639,2026-05-20 16:05:32.209,-2.108000,2.829000,31.321000,0.160900,0.273300,0.176600,-0.007138,0.006136,-0.005029,0.593000,0.268000,-10.190000
1779273332235158361,2026-05-20 16:05:32.234,-2.117000,2.838000,31.316000,0.159900,0.270400,0.178700,-0.007369,0.004353,-0.002193,0.421000,0.253000,-10.257000
1779273332260232565,2026-05-20 16:05:32.259,-2.123000,2.843000,31.310000,0.159000,0.274400,0.195000,-0.005440,0.005234,-0.005422,0.427000,0.320000,-10.204000
1779273332285188546,2026-05-20 16:05:32.284,-2.128000,2.848000,31.304000,0.160000,0.273400,0.192800,-0.004243,0.002578,-0.005501,0.422000,0.536000,-10.073000
1779273332310150564,2026-05-20 16:05:32.309,-2.138000,2.855000,31.299000,0.161800,0.271400,0.199500,-0.005475,0.005086,-0.005614,0.628000,0.245000,-10.158000
1779273332335069602,2026-05-20 16:05:32.334,-2.148000,2.867000,31.298000,0.159800,0.268400,0.194000,-0.008562,0.013502,0.002274,0.551000,0.295000,-10.079000
1779273332360488953,2026-05-20 16:05:32.359,-2.157000,2.887000,31.296000,0.160000,0.277300,0.201500,-0.008104,0.014164,0.001323,0.482000,0.402000,-10.136000
1779273332385259287,2026-05-20 16:05:32.384,-2.165000,2.907000,31.296000,0.159900,0.271400,0.179800,-0.004583,0.012642,-0.002411,0.431000,0.432000,-10.165000
1779273332410136990,2026-05-20 16:05:32.409,-2.173000,2.918000,31.297000,0.160800,0.269400,0.200500,-0.004040,0.004851,-0.001585,0.494000,0.444000,-10.140000
1779273332435116009,2026-05-20 16:05:32.434,-2.178000,2.924000,31.302000,0.159000,0.274400,0.197100,-0.006149,0.004884,0.002544,0.514000,0.301000,-10.064000
1779273332460260194,2026-05-20 16:05:32.459,-2.184000,2.934000,31.304000,0.159000,0.270400,0.196100,-0.003229,0.010227,0.000921,0.603000,0.503000,-10.093000
1779273332485502046,2026-05-20 16:05:32.484,-2.188000,2.953000,31.305000,0.159800,0.267500,0.196100,-0.001458,0.014178,-0.000627,0.499000,0.467000,-10.155000
1779273332510177527,2026-05-20 16:05:32.509,-2.190000,2.970000,31.305000,0.160000,0.274400,0.198300,0.000199,0.009800,-0.001626,0.480000,0.374000,-10.152000
1779273332535138342,2026-05-20 16:05:32.534,-2.190000,2.977000,31.311000,0.158900,0.269400,0.176500,-0.000181,0.002671,0.004595,0.462000,0.307000,-10.200000
1779273332560182564,2026-05-20 16:05:32.559,-2.186000,2.977000,31.317000,0.159900,0.272300,0.176500,0.001675,-0.002489,0.004649,0.643000,0.397000,-10.037000
1779273332585232916,2026-05-20 16:05:32.584,-2.180000,2.976000,31.325000,0.159000,0.271400,0.196100,0.005452,0.000372,0.001414,0.560000,0.495000,-10.123000
1779273332610104805,2026-05-20 16:05:32.609,-2.174000,2.979000,31.331000,0.159900,0.271400,0.198300,0.002633,0.005161,0.003732,0.505000,0.321000,-10.088000
1779273332635057953,2026-05-20 16:05:32.634,-2.171000,2.985000,31.340000,0.158100,0.272400,0.197100,0.003053,0.002339,0.005908,0.474000,0.179000,-10.155000
1779273332660145675,2026-05-20 16:05:32.659,-2.166000,2.987000,31.352000,0.159000,0.274400,0.193900,0.003528,0.000501,0.008750,0.510000,0.361000,-10.153000
1779273332685241953,2026-05-20 16:05:32.684,-2.155000,2.984000,31.362000,0.159000,0.271400,0.197200,0.007503,-0.004014,0.009527,0.557000,0.367000,-10.096000
1779273332710119935,2026-05-20 16:05:32.709,-2.144000,2.976000,31.375000,0.159900,0.270400,0.179800,0.007625,-0.006051,0.004801,0.505000,0.428000,-10.188000
1779273332735092879,2026-05-20 16:05:32.734,-2.136000,2.969000,31.390000,0.158000,0.270500,0.196000,0.004276,-0.002633,0.010844,0.512000,0.337000,-10.138000
1779273332760152768,2026-05-20 16:05:32.759,-2.130000,2.967000,31.403000,0.159000,0.270500,0.199300,0.001207,0.001147,0.011167,0.602000,0.258000,-10.124000
1779273332785268916,2026-05-20 16:05:32.784,-2.124000,2.968000,31.419000,0.161000,0.276300,0.178700,0.003850,-0.000370,0.010447,0.612000,0.436000,-10.129000
1779273332810182768,2026-05-20 16:05:32.809,-2.116000,2.969000,31.436000,0.160800,0.270400,0.194000,0.005378,-0.002734,0.011504,0.462000,0.412000,-10.203000
1779273332835056564,2026-05-20 16:05:32.834,-2.109000,2.962000,31.455000,0.159000,0.270400,0.170000,0.003920,-0.005132,0.008631,0.428000,0.294000,-10.225000
1779273332860127897,2026-05-20 16:05:32.859,-2.104000,2.954000,31.474000,0.159900,0.269400,0.192900,0.000403,-0.004728,0.014718,0.480000,0.381000,-10.148000
1779273332885183416,2026-05-20 16:05:32.884,-2.101000,2.955000,31.496000,0.160800,0.268400,0.196200,-0.000836,0.000344,0.014921,0.663000,0.427000,-10.050000
1779273332910048323,2026-05-20 16:05:32.909,-2.098000,2.960000,31.518000,0.162700,0.272400,0.200600,0.003728,0.005387,0.009808,0.601000,0.504000,-10.185000
1779273332934994175,2026-05-20 16:05:32.933,-2.095000,2.964000,31.540000,0.160800,0.268400,0.190800,0.002054,0.002007,0.014366,0.437000,0.255000,-10.156000
1779273332959993416,2026-05-20 16:05:32.958,-2.095000,2.968000,31.562000,0.160800,0.269400,0.177700,-0.002475,0.001644,0.016015,0.489000,0.192000,-10.161000
1779273332985264083,2026-05-20 16:05:32.984,-2.098000,2.970000,31.588000,0.160900,0.272400,0.198300,-0.003574,0.000003,0.016512,0.517000,0.435000,-10.134000
1779273333010049694,2026-05-20 16:05:33.008,-2.098000,2.972000,31.609000,0.159800,0.267400,0.174400,-0.000383,0.000395,0.014013,0.517000,0.416000,-10.144000
1779273333035009175,2026-05-20 16:05:33.034,-2.098000,2.977000,31.631000,0.158900,0.267500,0.201500,0.002428,0.005025,0.012868,0.526000,0.341000,-10.221000
1779273333059994620,2026-05-20 16:05:33.059,-2.100000,2.980000,31.657000,0.161900,0.275300,0.178800,-0.006370,0.001172,0.019055,0.609000,0.279000,-10.164000
1779273333085158305,2026-05-20 16:05:33.084,-2.104000,2.981000,31.681000,0.160000,0.274300,0.179800,-0.004914,-0.002230,0.017585,0.487000,0.403000,-10.039000
1779273333110043712,2026-05-20 16:05:33.108,-2.108000,2.983000,31.704000,0.161800,0.273400,0.200500,-0.000680,0.002103,0.014314,0.472000,0.354000,-10.215000
1779273333135024286,2026-05-20 16:05:33.133,-2.108000,2.985000,31.732000,0.158900,0.267500,0.203700,0.001190,0.002215,0.017694,0.504000,0.308000,-10.094000
1779273333198630175,2026-05-20 16:05:33.197,-2.116000,2.987000,31.789000,0.164500,0.268400,0.199600,-0.005090,0.000063,0.020515,0.595000,0.437000,-10.173000
1779273333210160323,2026-05-20 16:05:33.209,-2.118000,2.985000,31.820000,0.161700,0.269400,0.196200,-0.000599,0.001013,0.017298,0.462000,0.389000,-10.054000
1779273333235059471,2026-05-20 16:05:33.234,-2.118000,2.989000,31.850000,0.159800,0.268400,0.194000,0.001011,0.002154,0.021840,0.422000,0.195000,-10.154000
1779273333260119194,2026-05-20 16:05:33.259,-2.121000,2.993000,31.884000,0.162700,0.270300,0.176700,-0.005762,0.001137,0.024328,0.557000,0.417000,-10.229000
1779273333285121342,2026-05-20 16:05:33.284,-2.124000,2.996000,31.916000,0.161800,0.271400,0.201600,-0.004002,0.000394,0.025621,0.448000,0.385000,-10.124000
1779273333310080231,2026-05-20 16:05:33.309,-2.124000,2.999000,31.951000,0.162600,0.265500,0.198500,0.000335,0.002047,0.021929,0.544000,0.467000,-10.137000
1779273333334950194,2026-05-20 16:05:33.333,-2.123000,3.004000,31.985000,0.163500,0.266400,0.177900,0.001884,0.004253,0.026066,0.616000,0.365000,-10.092000
1779273333359954934,2026-05-20 16:05:33.358,-2.122000,3.010000,32.022000,0.163600,0.270400,0.196300,-0.001837,0.001451,0.024644,0.656000,0.413000,-10.143000
1779273333385023471,2026-05-20 16:05:33.383,-2.121000,3.014000,32.057000,0.162600,0.265400,0.196300,-0.000318,0.003131,0.024012,0.449000,0.405000,-10.249000
1779273333410072193,2026-05-20 16:05:33.408,-2.120000,3.019000,32.095000,0.161700,0.267400,0.190800,0.001010,0.002350,0.026539,0.459000,0.314000,-10.147000
1779273333434991064,2026-05-20 16:05:33.433,-2.118000,3.024000,32.131000,0.163500,0.265400,0.188700,-0.000305,0.002003,0.025789,0.584000,0.381000,-10.218000
1779273333459992045,2026-05-20 16:05:33.458,-2.116000,3.023000,32.170000,0.164600,0.273300,0.192000,-0.000280,-0.003912,0.027532,0.654000,0.435000,-10.062000
1779273333485186712,2026-05-20 16:05:33.484,-2.112000,3.019000,32.206000,0.161700,0.267400,0.181000,0.002273,-0.005145,0.022111,0.596000,0.415000,-10.110000
1779273333509947638,2026-05-20 16:05:33.508,-2.111000,3.018000,32.241000,0.164500,0.267400,0.197500,0.001423,-0.001706,0.024219,0.427000,0.390000,-10.212000
1779273333534927416,2026-05-20 16:05:33.533,-2.111000,3.018000,32.275000,0.162700,0.270300,0.178900,-0.004785,0.002378,0.024521,0.479000,0.300000,-10.208000
1779273333560043027,2026-05-20 16:05:33.558,-2.111000,3.021000,32.309000,0.162700,0.268300,0.178900,-0.001360,-0.001663,0.023521,0.539000,0.548000,-10.062000
1779273333584969971,2026-05-20 16:05:33.583,-2.110000,3.019000,32.341000,0.163600,0.268300,0.176800,0.001384,-0.002736,0.022251,0.679000,0.384000,-10.186000
1779273333609975304,2026-05-20 16:05:33.608,-2.108000,3.011000,32.378000,0.167200,0.265400,0.194400,0.001781,-0.007652,0.024174,0.597000,0.316000,-10.067000
1779273333634914119,2026-05-20 16:05:33.633,-2.107000,3.003000,32.413000,0.166400,0.267400,0.199700,-0.002516,-0.007792,0.023891,0.564000,0.348000,-10.152000
1779273333659918101,2026-05-20 16:05:33.658,-2.110000,2.998000,32.445000,0.165500,0.270300,0.196400,-0.003786,-0.002219,0.021007,0.439000,0.349000,-10.094000
1779273333684917786,2026-05-20 16:05:33.683,-2.114000,2.996000,32.476000,0.164500,0.268400,0.195300,-0.003329,-0.001862,0.018643,0.426000,0.468000,-10.059000
1779273333709946749,2026-05-20 16:05:33.708,-2.117000,2.997000,32.508000,0.165400,0.267400,0.198600,-0.000997,-0.001620,0.022078,0.661000,0.311000,-10.189000
1779273333734874267,2026-05-20 16:05:33.733,-2.121000,2.993000,32.544000,0.163600,0.267400,0.197400,-0.005027,-0.005243,0.023934,0.694000,0.358000,-10.151000
1779273333759851582,2026-05-20 16:05:33.758,-2.125000,2.986000,32.577000,0.164400,0.264400,0.199700,-0.002852,-0.007006,0.022134,0.449000,0.411000,-10.129000
1779273333784868101,2026-05-20 16:05:33.783,-2.130000,2.978000,32.612000,0.165500,0.269300,0.175800,-0.004331,-0.006239,0.019763,0.446000,0.404000,-10.204000
1779273333809910230,2026-05-20 16:05:33.808,-2.135000,2.972000,32.647000,0.166500,0.273200,0.194300,-0.002619,-0.002246,0.022355,0.413000,0.317000,-10.107000
1779273333834841397,2026-05-20 16:05:33.833,-2.139000,2.969000,32.683000,0.162700,0.268300,0.180000,-0.006208,-0.004094,0.024522,0.584000,0.461000,-10.138000
1779273333859895064,2026-05-20 16:05:33.858,-2.145000,2.966000,32.719000,0.162600,0.266400,0.196300,-0.003856,-0.003144,0.022855,0.634000,0.477000,-10.228000
1779273333884953860,2026-05-20 16:05:33.883,-2.149000,2.962000,32.755000,0.167300,0.266400,0.197600,-0.002903,-0.000674,0.021768,0.464000,0.384000,-10.131000
1779273333910045823,2026-05-20 16:05:33.908,-2.154000,2.960000,32.790000,0.166400,0.267300,0.179100,-0.002694,-0.002983,0.022828,0.452000,0.278000,-10.168000
1779273333934853008,2026-05-20 16:05:33.933,-2.159000,2.958000,32.829000,0.166400,0.267300,0.180200,-0.006128,-0.001980,0.026746,0.505000,0.338000,-10.153000
1779273333959857119,2026-05-20 16:05:33.958,-2.162000,2.955000,32.864000,0.166300,0.266300,0.180200,-0.002810,-0.003998,0.025462,0.528000,0.458000,-10.149000
1779273333984921934,2026-05-20 16:05:33.983,-2.165000,2.951000,32.898000,0.165400,0.266300,0.179100,-0.001571,-0.000163,0.020647,0.421000,0.404000,-10.187000
1779273334009951878,2026-05-20 16:05:34.008,-2.168000,2.954000,32.933000,0.167400,0.270200,0.178000,-0.001530,0.004643,0.024735,0.484000,0.383000,-10.065000
1779273334034839175,2026-05-20 16:05:34.033,-2.172000,2.965000,32.967000,0.166300,0.266300,0.176900,-0.005890,0.008432,0.024735,0.645000,0.379000,-10.136000
1779273334059854786,2026-05-20 16:05:34.058,-2.176000,2.978000,33.000000,0.169100,0.264300,0.177100,-0.001252,0.009185,0.020445,0.585000,0.455000,-10.110000
1779273334084850897,2026-05-20 16:05:34.083,-2.177000,2.983000,33.032000,0.168200,0.266300,0.186800,-0.000615,-0.000761,0.021600,0.464000,0.382000,-10.243000
1779273334109987415,2026-05-20 16:05:34.108,-2.176000,2.982000,33.065000,0.168200,0.268300,0.200900,0.002392,-0.000826,0.020709,0.413000,0.200000,-10.192000
1779273334134894508,2026-05-20 16:05:34.133,-2.174000,2.979000,33.097000,0.167300,0.266400,0.200900,-0.001911,-0.000424,0.023435,0.461000,0.454000,-10.103000
1779273334198290786,2026-05-20 16:05:34.197,-2.172000,2.994000,33.152000,0.167100,0.260400,0.198800,0.002298,0.007070,0.017202,0.672000,0.427000,-10.232000
1779273334210042600,2026-05-20 16:05:34.208,-2.171000,3.001000,33.182000,0.166200,0.261400,0.177000,-0.000094,0.003306,0.019508,0.509000,0.318000,-10.197000
1779273334234823952,2026-05-20 16:05:34.233,-2.169000,3.001000,33.210000,0.168100,0.262400,0.199900,0.000640,-0.004361,0.021032,0.480000,0.258000,-10.166000
1779273334259812286,2026-05-20 16:05:34.258,-2.164000,2.993000,33.242000,0.168200,0.266300,0.199800,0.002106,-0.006825,0.019646,0.566000,0.423000,-10.083000
1779273334284898860,2026-05-20 16:05:34.283,-2.160000,2.989000,33.271000,0.168000,0.259400,0.198800,0.001964,-0.002553,0.018270,0.488000,0.466000,-10.086000
1779273334309994748,2026-05-20 16:05:34.308,-2.158000,2.992000,33.301000,0.167200,0.262300,0.179200,0.002223,0.002808,0.016423,0.553000,0.327000,-10.208000
1779273334334826100,2026-05-20 16:05:34.333,-2.156000,2.996000,33.333000,0.170000,0.263300,0.198900,-0.000695,0.000819,0.023789,0.573000,0.354000,-10.209000
1779273334359860248,2026-05-20 16:05:34.358,-2.154000,2.995000,33.366000,0.166300,0.266300,0.178000,-0.002474,-0.004500,0.023143,0.666000,0.358000,-10.071000
1779273334384836582,2026-05-20 16:05:34.383,-2.151000,2.988000,33.400000,0.171900,0.264300,0.191400,0.002651,-0.006620,0.022206,0.541000,0.501000,-10.116000
1779273334409918489,2026-05-20 16:05:34.408,-2.146000,2.978000,33.435000,0.165400,0.264400,0.179100,0.004167,-0.006408,0.023189,0.450000,0.343000,-10.147000
1779273334434865600,2026-05-20 16:05:34.433,-2.142000,2.972000,33.468000,0.168100,0.263300,0.189000,-0.000561,-0.003653,0.023332,0.408000,0.217000,-10.216000
1779273334459743730,2026-05-20 16:05:34.458,-2.142000,2.971000,33.503000,0.170900,0.264300,0.200000,-0.004765,-0.000272,0.025865,0.557000,0.508000,-10.125000
1779273334484776415,2026-05-20 16:05:34.483,-2.141000,2.969000,33.537000,0.168200,0.265300,0.173800,-0.002066,-0.005017,0.026919,0.636000,0.470000,-10.014000
1779273334509826100,2026-05-20 16:05:34.508,-2.138000,2.964000,33.573000,0.168100,0.263300,0.175900,0.004071,-0.006480,0.021498,0.645000,0.494000,-10.277000
1779273334534785137,2026-05-20 16:05:34.533,-2.134000,2.950000,33.611000,0.171000,0.264200,0.177200,0.001893,-0.010687,0.027674,0.419000,0.257000,-10.192000
1779273334559795952,2026-05-20 16:05:34.558,-2.133000,2.939000,33.648000,0.171000,0.265200,0.175000,-0.002199,-0.008640,0.027285,0.412000,0.365000,-10.089000
1779273334584910008,2026-05-20 16:05:34.583,-2.134000,2.934000,33.686000,0.170100,0.269200,0.177100,-0.003184,-0.000516,0.024694,0.494000,0.515000,-10.096000
1779273334609831619,2026-05-20 16:05:34.608,-2.135000,2.935000,33.723000,0.171000,0.264200,0.179300,-0.000975,-0.001206,0.025111,0.526000,0.448000,-10.100000
1779273334634944008,2026-05-20 16:05:34.633,-2.136000,2.933000,33.764000,0.170000,0.262400,0.196700,0.001320,-0.004642,0.024932,0.538000,0.346000,-10.307000
1779273334659727952,2026-05-20 16:05:34.658,-2.137000,2.925000,33.806000,0.170900,0.262300,0.180400,-0.002625,-0.007466,0.029980,0.545000,0.261000,-10.203000
1779273334684767711,2026-05-20 16:05:34.683,-2.137000,2.915000,33.845000,0.172800,0.263200,0.179400,-0.003841,-0.007009,0.026026,0.546000,0.481000,-9.999000
1779273334709730508,2026-05-20 16:05:34.708,-2.138000,2.910000,33.885000,0.171900,0.266300,0.200000,0.000428,0.000574,0.022845,0.462000,0.452000,-10.103000
1779273334734804378,2026-05-20 16:05:34.733,-2.140000,2.911000,33.922000,0.170000,0.262300,0.195600,-0.001607,-0.000974,0.027596,0.482000,0.300000,-10.174000
1779273334759722545,2026-05-20 16:05:34.758,-2.142000,2.910000,33.960000,0.171800,0.260300,0.191400,-0.002580,-0.003032,0.026592,0.501000,0.211000,-10.266000
1779273334784705507,2026-05-20 16:05:34.783,-2.144000,2.907000,33.999000,0.171800,0.258300,0.174000,-0.003784,-0.002116,0.028962,0.577000,0.473000,-10.035000
1779273334809791082,2026-05-20 16:05:34.808,-2.143000,2.904000,34.036000,0.172800,0.263200,0.178400,0.000273,-0.004945,0.024610,0.567000,0.498000,-10.007000
1779273334834804970,2026-05-20 16:05:34.833,-2.145000,2.903000,34.073000,0.172800,0.263300,0.194700,0.000752,0.001466,0.021913,0.537000,0.391000,-10.203000
1779273334860162396,2026-05-20 16:05:34.859,-2.146000,2.904000,34.110000,0.174600,0.259300,0.192600,-0.001722,0.001858,0.028111,0.435000,0.250000,-10.239000
1779273334885844415,2026-05-20 16:05:34.884,-2.146000,2.908000,34.147000,0.170900,0.263300,0.177200,-0.004873,0.000805,0.025719,0.470000,0.386000,-10.106000
1779273334909818359,2026-05-20 16:05:34.908,-2.146000,2.912000,34.181000,0.172800,0.263200,0.175100,-0.000490,0.000657,0.021252,0.542000,0.565000,-10.127000
1779273334935808674,2026-05-20 16:05:34.934,-2.145000,2.912000,34.215000,0.173800,0.264200,0.178400,0.000350,-0.001813,0.022707,0.598000,0.455000,-10.129000
1779273334959656618,2026-05-20 16:05:34.958,-2.143000,2.911000,34.252000,0.174000,0.276100,0.196800,0.002056,-0.001687,0.025473,0.559000,0.241000,-10.223000
1779273334985775304,2026-05-20 16:05:34.984,-2.141000,2.911000,34.291000,0.173800,0.267200,0.195800,-0.001646,0.001623,0.027399,0.470000,0.365000,-10.160000
1779273335009710118,2026-05-20 16:05:35.008,-2.139000,2.917000,34.327000,0.172900,0.267200,0.199000,-0.001368,0.003423,0.027612,0.493000,0.427000,-9.988000
1779273335035806489,2026-05-20 16:05:35.034,-2.139000,2.927000,34.362000,0.173700,0.260300,0.181700,0.000819,0.005589,0.022921,0.484000,0.445000,-10.161000
1779273335059699452,2026-05-20 16:05:35.058,-2.138000,2.937000,34.400000,0.173600,0.255300,0.182800,0.000134,0.004936,0.027699,0.518000,0.333000,-10.222000
1779273335085699118,2026-05-20 16:05:35.084,-2.136000,2.943000,34.436000,0.173600,0.259300,0.177300,-0.000358,0.002266,0.027497,0.477000,0.280000,-10.187000
1779273335109659989,2026-05-20 16:05:35.108,-2.133000,2.947000,34.478000,0.171900,0.263300,0.197900,-0.000226,0.000667,0.027371,0.579000,0.545000,-10.119000
1779273335135752470,2026-05-20 16:05:35.134,-2.130000,2.951000,34.513000,0.173700,0.263200,0.177300,0.000617,0.001654,0.024539,0.587000,0.439000,-10.114000
1779273335198034581,2026-05-20 16:05:35.196,-2.129000,2.970000,34.589000,0.174600,0.259300,0.179600,-0.001168,0.007949,0.028446,0.464000,0.246000,-10.231000
1779273335210663933,2026-05-20 16:05:35.209,-2.128000,2.982000,34.627000,0.177600,0.267100,0.176400,-0.001900,0.006673,0.027559,0.603000,0.395000,-10.096000
1779273335235754155,2026-05-20 16:05:35.234,-2.126000,2.987000,34.662000,0.174600,0.261200,0.178500,0.001678,0.002797,0.022333,0.511000,0.446000,-10.102000
1779273335260659692,2026-05-20 16:05:35.259,-2.124000,2.989000,34.699000,0.175500,0.260200,0.176400,0.001723,-0.002574,0.026254,0.522000,0.357000,-10.110000
1779273335285593007,2026-05-20 16:05:35.284,-2.123000,2.990000,34.737000,0.174600,0.258300,0.180700,-0.001037,-0.000325,0.027407,0.487000,0.229000,-10.261000
1779273335310665507,2026-05-20 16:05:35.309,-2.122000,2.995000,34.777000,0.177500,0.263200,0.199300,-0.002735,0.006699,0.028950,0.551000,0.415000,-10.139000
1779273335335686433,2026-05-20 16:05:35.334,-2.121000,3.003000,34.811000,0.174600,0.259300,0.199100,-0.002477,0.001344,0.025583,0.596000,0.513000,-10.039000
1779273335360840044,2026-05-20 16:05:35.359,-2.123000,3.009000,34.845000,0.176500,0.260200,0.180700,-0.001057,0.001817,0.021032,0.643000,0.434000,-10.254000
1779273335385644211,2026-05-20 16:05:35.384,-2.124000,3.010000,34.884000,0.173500,0.254300,0.179600,-0.000424,0.002417,0.028560,0.477000,0.280000,-10.239000
1779273335410661414,2026-05-20 16:05:35.409,-2.124000,3.010000,34.920000,0.177300,0.258300,0.200400,-0.003764,-0.001806,0.026925,0.468000,0.349000,-10.114000
1779273335435592748,2026-05-20 16:05:35.434,-2.125000,3.015000,34.958000,0.173600,0.259300,0.180600,-0.002067,0.000302,0.023585,0.523000,0.480000,-10.091000
1779273335459636285,2026-05-20 16:05:35.458,-2.128000,3.018000,34.994000,0.175500,0.257300,0.177500,-0.003986,-0.000078,0.023933,0.574000,0.467000,-10.156000
1779273335485734044,2026-05-20 16:05:35.484,-2.132000,3.021000,35.034000,0.178300,0.258200,0.181900,-0.001929,-0.000536,0.024502,0.479000,0.311000,-10.246000
1779273335510653711,2026-05-20 16:05:35.509,-2.134000,3.018000,35.074000,0.177300,0.258300,0.201500,-0.004195,-0.003350,0.028100,0.590000,0.379000,-10.180000
1779273335535586637,2026-05-20 16:05:35.534,-2.136000,3.013000,35.112000,0.176500,0.260300,0.196000,-0.005174,-0.004237,0.026966,0.652000,0.451000,-10.018000
1779273335560650285,2026-05-20 16:05:35.559,-2.139000,3.009000,35.146000,0.176400,0.256300,0.193800,-0.002502,-0.002934,0.021955,0.516000,0.437000,-10.100000
1779273335585594970,2026-05-20 16:05:35.584,-2.144000,3.009000,35.178000,0.179200,0.259200,0.199400,-0.001363,0.000751,0.025633,0.479000,0.335000,-10.212000
1779273335610631100,2026-05-20 16:05:35.609,-2.147000,3.010000,35.211000,0.176500,0.260300,0.194900,-0.003454,-0.000257,0.026154,0.495000,0.176000,-10.220000
1779273335635589322,2026-05-20 16:05:35.634,-2.148000,3.004000,35.247000,0.179300,0.260200,0.196100,-0.003921,-0.006859,0.024892,0.525000,0.530000,-10.084000
1779273335660611637,2026-05-20 16:05:35.659,-2.147000,2.994000,35.281000,0.178300,0.260200,0.196100,-0.000531,-0.011489,0.021795,0.564000,0.542000,-10.036000
1779273335685617488,2026-05-20 16:05:35.684,-2.148000,2.980000,35.312000,0.177400,0.258200,0.172100,0.002827,-0.010994,0.018008,0.576000,0.470000,-10.234000
1779273335710632729,2026-05-20 16:05:35.709,-2.149000,2.969000,35.345000,0.177400,0.260300,0.200400,-0.001987,-0.003381,0.024067,0.454000,0.200000,-10.161000
1779273335735635470,2026-05-20 16:05:35.734,-2.148000,2.966000,35.376000,0.179200,0.259200,0.190700,-0.002391,-0.002571,0.024240,0.551000,0.362000,-10.034000
1779273335760624766,2026-05-20 16:05:35.759,-2.147000,2.963000,35.408000,0.178300,0.261100,0.178700,0.000531,-0.004185,0.019781,0.608000,0.444000,-10.048000
1779273335785583081,2026-05-20 16:05:35.784,-2.146000,2.957000,35.439000,0.179200,0.259200,0.177600,-0.000152,-0.004797,0.019732,0.473000,0.450000,-10.214000
1779273335810677896,2026-05-20 16:05:35.809,-2.145000,2.949000,35.472000,0.181200,0.262100,0.182100,0.000326,-0.005489,0.020395,0.386000,0.230000,-10.175000
1779273335835543822,2026-05-20 16:05:35.834,-2.143000,2.942000,35.505000,0.177300,0.256300,0.191700,-0.001994,-0.004359,0.025281,0.483000,0.303000,-10.156000
1779273335860586451,2026-05-20 16:05:35.859,-2.140000,2.943000,35.535000,0.177300,0.257300,0.198200,-0.001402,0.000550,0.023188,0.620000,0.473000,-10.067000
1779273335885641303,2026-05-20 16:05:35.884,-2.140000,2.948000,35.569000,0.180200,0.258200,0.175500,0.001218,0.005289,0.019919,0.486000,0.498000,-10.237000
1779273335910602507,2026-05-20 16:05:35.909,-2.140000,2.950000,35.599000,0.179200,0.259200,0.177600,0.000466,-0.001665,0.023371,0.496000,0.396000,-10.132000
1779273335935531488,2026-05-20 16:05:35.934,-2.139000,2.950000,35.630000,0.180100,0.257200,0.177700,-0.000691,-0.002368,0.022944,0.603000,0.252000,-10.106000
1779273335960631544,2026-05-20 16:05:35.959,-2.136000,2.949000,35.666000,0.179200,0.259200,0.195000,0.000043,0.000101,0.023251,0.568000,0.510000,-10.238000
1779273335985651118,2026-05-20 16:05:35.984,-2.135000,2.954000,35.697000,0.181000,0.255200,0.196200,-0.001962,0.004239,0.023515,0.519000,0.403000,-10.075000
1779273336010571044,2026-05-20 16:05:36.009,-2.138000,2.965000,35.727000,0.178300,0.258200,0.175400,-0.000596,0.008159,0.018228,0.522000,0.407000,-10.152000
1779273336035503284,2026-05-20 16:05:36.034,-2.140000,2.980000,35.762000,0.178300,0.259200,0.195000,-0.001172,0.009739,0.024554,0.560000,0.355000,-10.049000
1779273336060661803,2026-05-20 16:05:36.059,-2.137000,2.991000,35.797000,0.180200,0.260200,0.196200,0.001522,0.004286,0.026703,0.542000,0.247000,-10.269000
1779273336085535340,2026-05-20 16:05:36.084,-2.137000,2.996000,35.831000,0.179300,0.263200,0.199300,-0.001052,0.001433,0.023582,0.485000,0.481000,-10.129000
1779273336110553581,2026-05-20 16:05:36.109,-2.136000,3.000000,35.866000,0.179300,0.260100,0.177600,-0.003369,0.002428,0.024619,0.509000,0.420000,-10.046000
1779273336135500618,2026-05-20 16:05:36.134,-2.138000,3.008000,35.901000,0.180200,0.260100,0.177700,-0.000243,0.006925,0.021798,0.474000,0.430000,-10.173000
1779273336198808599,2026-05-20 16:05:36.197,-2.138000,3.040000,35.975000,0.180100,0.256200,0.178800,-0.003045,0.010449,0.028214,0.605000,0.359000,-10.122000
1779273336210569266,2026-05-20 16:05:36.209,-2.140000,3.049000,36.012000,0.181000,0.255200,0.178900,-0.004045,0.001927,0.027104,0.685000,0.485000,-10.011000
1779273336235507025,2026-05-20 16:05:36.234,-2.141000,3.053000,36.044000,0.181100,0.261100,0.177700,-0.000838,-0.001103,0.022582,0.604000,0.403000,-10.133000
1779273336260574451,2026-05-20 16:05:36.259,-2.139000,3.053000,36.069000,0.180000,0.252300,0.201700,0.002952,0.002314,0.017390,0.397000,0.277000,-10.303000
1779273336285582210,2026-05-20 16:05:36.284,-2.137000,3.058000,36.093000,0.182100,0.260100,0.181000,-0.000253,0.004500,0.017647,0.562000,0.316000,-10.191000
1779273336310591692,2026-05-20 16:05:36.309,-2.135000,3.068000,36.110000,0.182000,0.258200,0.200600,-0.000947,0.004689,0.010748,0.458000,0.454000,-10.060000
1779273336335424432,2026-05-20 16:05:36.334,-2.134000,3.074000,36.123000,0.181000,0.255200,0.179900,0.002988,0.005188,0.005572,0.630000,0.326000,-10.174000
1779273336360414062,2026-05-20 16:05:36.359,-2.131000,3.075000,36.131000,0.180100,0.254200,0.176600,0.001721,-0.001133,0.004771,0.557000,0.388000,-10.087000
1779273336385588581,2026-05-20 16:05:36.384,-2.126000,3.073000,36.135000,0.181000,0.256200,0.179900,0.003621,-0.006393,0.002468,0.534000,0.449000,-10.115000
1779273336410549210,2026-05-20 16:05:36.409,-2.119000,3.067000,36.137000,0.181000,0.254200,0.181000,0.004141,-0.001609,0.000697,0.614000,0.384000,-10.143000
1779273336435456192,2026-05-20 16:05:36.434,-2.115000,3.059000,36.137000,0.181000,0.256200,0.183200,0.001664,-0.003805,-0.000085,0.525000,0.404000,-10.101000
1779273336460710025,2026-05-20 16:05:36.459,-2.112000,3.054000,36.138000,0.180100,0.257200,0.194000,0.003562,-0.007503,-0.001069,0.523000,0.544000,-10.229000
1779273336485515858,2026-05-20 16:05:36.484,-2.105000,3.041000,36.136000,0.182100,0.260200,0.199500,0.007389,-0.008260,-0.002560,0.574000,0.264000,-10.197000
1779273336510489655,2026-05-20 16:05:36.509,-2.099000,3.021000,36.136000,0.182000,0.256200,0.205000,0.003275,-0.011424,0.001375,0.446000,0.277000,-10.178000
1779273336535452729,2026-05-20 16:05:36.534,-2.094000,3.004000,36.135000,0.181000,0.254200,0.179900,0.001099,-0.016138,0.001779,0.402000,0.354000,-10.089000
1779273336560569377,2026-05-20 16:05:36.559,-2.092000,2.991000,36.136000,0.181900,0.254200,0.180000,0.001828,-0.006794,0.000830,0.597000,0.324000,-10.198000
1779273336585587562,2026-05-20 16:05:36.584,-2.090000,2.979000,36.138000,0.183900,0.257100,0.179000,0.000033,-0.007929,0.002701,0.577000,0.392000,-9.997000
1779273336610536821,2026-05-20 16:05:36.609,-2.089000,2.970000,36.145000,0.180000,0.253300,0.190800,-0.000884,-0.011543,0.006176,0.533000,0.449000,-10.221000
1779273336635428043,2026-05-20 16:05:36.634,-2.087000,2.960000,36.145000,0.184800,0.258100,0.182300,0.002317,-0.005829,0.001165,0.401000,0.351000,-10.308000
1779273336660385395,2026-05-20 16:05:36.659,-2.086000,2.949000,36.148000,0.183800,0.255200,0.192000,0.000750,-0.004668,0.002734,0.392000,0.427000,-10.026000
1779273336685558025,2026-05-20 16:05:36.684,-2.088000,2.944000,36.154000,0.182900,0.254200,0.177900,-0.003148,-0.006726,0.003793,0.708000,0.297000,-10.064000
1779273336710523506,2026-05-20 16:05:36.709,-2.091000,2.939000,36.155000,0.181900,0.254300,0.197400,-0.002323,-0.003505,-0.000532,0.467000,0.290000,-10.131000
1779273336735426617,2026-05-20 16:05:36.734,-2.093000,2.933000,36.157000,0.181000,0.256200,0.198400,0.000818,-0.004281,0.000615,0.446000,0.326000,-10.149000
1779273336760388080,2026-05-20 16:05:36.759,-2.096000,2.930000,36.157000,0.183900,0.257100,0.179000,-0.003461,-0.003196,0.002155,0.617000,0.361000,-10.170000
1779273336785526210,2026-05-20 16:05:36.784,-2.101000,2.927000,36.156000,0.182000,0.256200,0.196300,-0.004738,-0.001902,-0.003569,0.507000,0.385000,-10.100000
1779273336810468414,2026-05-20 16:05:36.809,-2.104000,2.926000,36.156000,0.182000,0.257200,0.189800,-0.001015,0.001397,-0.001152,0.409000,0.308000,-10.159000
1779273336835471080,2026-05-20 16:05:36.834,-2.108000,2.930000,36.154000,0.182900,0.257100,0.177800,-0.001645,0.003306,-0.000046,0.530000,0.228000,-10.177000
1779273336860459840,2026-05-20 16:05:36.859,-2.112000,2.936000,36.152000,0.181200,0.264000,0.177700,-0.004444,0.003381,0.000210,0.583000,0.294000,-10.085000
1779273336888394840,2026-05-20 16:05:36.887,-2.119000,2.942000,36.150000,0.182000,0.257100,0.176700,-0.005847,0.004134,-0.000471,0.616000,0.507000,-10.067000
1779273336910415877,2026-05-20 16:05:36.909,-2.125000,2.950000,36.150000,0.181100,0.258100,0.177700,-0.001884,0.007337,0.000856,0.528000,0.286000,-10.254000
1779273336935349136,2026-05-20 16:05:36.934,-2.130000,2.958000,36.150000,0.181900,0.254200,0.177800,-0.004080,0.007915,0.001686,0.472000,0.335000,-10.172000
1779273336960312969,2026-05-20 16:05:36.959,-2.133000,2.970000,36.150000,0.183900,0.260100,0.201800,-0.001877,0.010520,-0.000844,0.419000,0.563000,-10.048000
1779273336985471321,2026-05-20 16:05:36.984,-2.137000,2.987000,36.150000,0.180100,0.258200,0.179900,-0.000236,0.012624,-0.001211,0.650000,0.322000,-10.186000
1779273337010420506,2026-05-20 16:05:37.009,-2.142000,3.004000,36.151000,0.181100,0.258100,0.178800,-0.004670,0.011480,0.000765,0.568000,0.340000,-10.105000
1779273337035329265,2026-05-20 16:05:37.034,-2.145000,3.017000,36.151000,0.181100,0.258100,0.177700,-0.002912,0.005937,0.002951,0.456000,0.366000,-10.143000
1779273337060336969,2026-05-20 16:05:37.059,-2.149000,3.026000,36.151000,0.180100,0.254200,0.175500,-0.000781,0.007380,0.001464,0.478000,0.383000,-10.283000
1779273337085507636,2026-05-20 16:05:37.084,-2.150000,3.034000,36.151000,0.181000,0.255200,0.176700,-0.002185,0.008719,-0.000236,0.462000,0.490000,-10.067000
1779273337110461562,2026-05-20 16:05:37.109,-2.153000,3.046000,36.149000,0.182000,0.257200,0.196300,-0.002908,0.005942,-0.000325,0.710000,0.440000,-10.102000
1779273337135358895,2026-05-20 16:05:37.134,-2.155000,3.059000,36.148000,0.181100,0.259100,0.177700,-0.001361,0.008972,0.000339,0.639000,0.325000,-10.167000
1779273337198892413,2026-05-20 16:05:37.197,-2.154000,3.072000,36.148000,0.182900,0.257100,0.180000,-0.001342,-0.000292,-0.000755,0.639000,0.311000,-10.182000
1779273337210407432,2026-05-20 16:05:37.209,-2.151000,3.071000,36.143000,0.181100,0.258100,0.175600,0.001885,-0.001017,-0.003019,0.499000,0.510000,-10.080000
1779273337235403136,2026-05-20 16:05:37.234,-2.150000,3.067000,36.142000,0.183900,0.260100,0.198500,0.002756,-0.000793,-0.003390,0.633000,0.307000,-10.115000
1779273337260278543,2026-05-20 16:05:37.259,-2.148000,3.066000,36.136000,0.180200,0.260100,0.177700,0.001994,0.002271,-0.001415,0.596000,0.279000,-10.096000
1779273337285327413,2026-05-20 16:05:37.284,-2.145000,3.066000,36.132000,0.181000,0.256200,0.200600,0.003031,-0.000425,-0.005893,0.445000,0.373000,-10.149000
1779273337310429006,2026-05-20 16:05:37.309,-2.140000,3.061000,36.123000,0.181000,0.255300,0.201700,0.004723,-0.007203,-0.004471,0.480000,0.310000,-10.203000
1779273337335324765,2026-05-20 16:05:37.334,-2.134000,3.051000,36.117000,0.182000,0.259200,0.199500,0.005173,-0.008605,-0.002929,0.577000,0.370000,-10.159000
1779273337360239043,2026-05-20 16:05:37.359,-2.129000,3.038000,36.111000,0.183900,0.259100,0.180000,0.003403,-0.008541,-0.004640,0.648000,0.411000,-10.086000
1779273337386483636,2026-05-20 16:05:37.384,-2.123000,3.028000,36.104000,0.181100,0.259200,0.199500,0.004412,-0.006722,-0.006529,0.436000,0.345000,-10.073000
1779273337410404450,2026-05-20 16:05:37.409,-2.117000,3.025000,36.098000,0.179200,0.258200,0.178700,0.004148,-0.000004,-0.002979,0.446000,0.205000,-10.265000
1779273337435321487,2026-05-20 16:05:37.434,-2.113000,3.021000,36.094000,0.182900,0.255200,0.178900,0.001115,-0.000767,-0.000407,0.533000,0.362000,-10.181000
1779273337460331080,2026-05-20 16:05:37.459,-2.110000,3.019000,36.090000,0.182900,0.255200,0.180000,0.001352,-0.005148,-0.000802,0.524000,0.488000,-10.082000
1779273337485324265,2026-05-20 16:05:37.484,-2.107000,3.010000,36.088000,0.182000,0.258200,0.201700,0.002906,-0.004650,-0.003095,0.566000,0.325000,-10.157000
1779273337510435376,2026-05-20 16:05:37.509,-2.104000,3.003000,36.089000,0.184800,0.258100,0.180100,0.002139,-0.001249,-0.000391,0.453000,0.338000,-10.038000
1779273337535337691,2026-05-20 16:05:37.534,-2.102000,3.004000,36.089000,0.182000,0.256200,0.198400,-0.000816,0.000037,0.001267,0.495000,0.423000,-10.156000
1779273337560410524,2026-05-20 16:05:37.559,-2.104000,3.007000,36.090000,0.182000,0.257100,0.181000,0.000114,0.002330,-0.000762,0.509000,0.348000,-10.234000
1779273337585343043,2026-05-20 16:05:37.584,-2.104000,3.009000,36.092000,0.181100,0.258100,0.181000,-0.001163,0.002351,0.002558,0.585000,0.349000,-10.091000
1779273337610375765,2026-05-20 16:05:37.609,-2.106000,3.008000,36.093000,0.181100,0.257200,0.179900,-0.001990,-0.003837,0.002820,0.697000,0.386000,-10.048000
1779273337635286913,2026-05-20 16:05:37.634,-2.107000,3.007000,36.091000,0.182900,0.255200,0.198500,0.000621,0.002114,-0.000798,0.441000,0.319000,-10.104000
1779273337660211358,2026-05-20 16:05:37.659,-2.108000,3.008000,36.093000,0.182000,0.257100,0.180000,-0.000216,0.002036,0.000739,0.453000,0.325000,-10.177000
1779273337685267543,2026-05-20 16:05:37.684,-2.112000,3.015000,36.094000,0.181000,0.253200,0.178900,-0.005076,0.006401,0.003860,0.572000,0.261000,-10.221000
1779273337710339302,2026-05-20 16:05:37.709,-2.117000,3.023000,36.096000,0.181000,0.254200,0.179900,-0.004255,0.004017,0.001006,0.600000,0.368000,-10.074000
1779273337735236543,2026-05-20 16:05:37.734,-2.120000,3.028000,36.096000,0.181900,0.255200,0.184300,-0.001427,0.002206,-0.001154,0.568000,0.349000,-10.123000
1779273337760177839,2026-05-20 16:05:37.759,-2.122000,3.030000,36.096000,0.179200,0.259200,0.180900,0.000158,0.000838,0.001868,0.510000,0.204000,-10.166000
1779273337785278487,2026-05-20 16:05:37.784,-2.126000,3.031000,36.096000,0.182800,0.253200,0.180000,-0.004182,0.002003,0.000072,0.514000,0.404000,-10.097000
1779273337810354191,2026-05-20 16:05:37.809,-2.129000,3.037000,36.096000,0.181000,0.256200,0.186400,-0.002240,0.004545,-0.001195,0.419000,0.334000,-10.128000
1779273337835194006,2026-05-20 16:05:37.834,-2.131000,3.046000,36.097000,0.182900,0.257200,0.198500,-0.000463,0.004188,0.001306,0.637000,0.254000,-10.226000
1779273337860289265,2026-05-20 16:05:37.859,-2.132000,3.048000,36.099000,0.181000,0.254200,0.182100,-0.000985,0.001031,0.000633,0.604000,0.394000,-10.099000
1779273337885200987,2026-05-20 16:05:37.884,-2.133000,3.047000,36.099000,0.181000,0.255200,0.198400,-0.000611,-0.001896,0.001415,0.420000,0.435000,-10.044000
1779273337910406802,2026-05-20 16:05:37.909,-2.132000,3.046000,36.100000,0.181100,0.257200,0.179900,0.001869,-0.000090,-0.000209,0.546000,0.304000,-10.215000
1779273337935346172,2026-05-20 16:05:37.934,-2.130000,3.047000,36.104000,0.182900,0.255100,0.175700,-0.000382,0.003127,0.001391,0.473000,0.343000,-10.127000
1779273337960172061,2026-05-20 16:05:37.959,-2.128000,3.053000,36.105000,0.182000,0.258200,0.194100,-0.000121,0.003771,0.003660,0.643000,0.404000,-10.084000
1779273337985202061,2026-05-20 16:05:37.984,-2.127000,3.058000,36.105000,0.183000,0.261100,0.198400,0.003545,0.001546,0.001054,0.578000,0.435000,-10.169000
1779273338010265617,2026-05-20 16:05:38.009,-2.124000,3.056000,36.109000,0.181100,0.257100,0.174500,0.003283,-0.002717,0.001342,0.425000,0.277000,-10.104000
1779273338035277950,2026-05-20 16:05:38.034,-2.118000,3.051000,36.111000,0.182900,0.256100,0.178900,0.003174,-0.007446,0.002755,0.668000,0.379000,-10.200000
1779273338060157894,2026-05-20 16:05:38.059,-2.110000,3.047000,36.114000,0.183900,0.259100,0.200700,0.006945,-0.000150,-0.000124,0.468000,0.377000,-10.184000
1779273338085230876,2026-05-20 16:05:38.084,-2.102000,3.047000,36.114000,0.181000,0.255200,0.177700,0.004423,0.002010,0.000612,0.538000,0.324000,-10.141000
1779273338110191746,2026-05-20 16:05:38.109,-2.101000,3.052000,36.114000,0.181100,0.258100,0.182100,-0.000217,0.003318,0.000704,0.650000,0.385000,-10.133000
1779273338135203894,2026-05-20 16:05:38.134,-2.099000,3.054000,36.114000,0.182900,0.255100,0.176700,0.001607,0.002497,-0.002068,0.430000,0.304000,-10.124000
1779273338198535820,2026-05-20 16:05:38.197,-2.086000,3.041000,36.118000,0.182100,0.263100,0.195100,0.003564,-0.006113,0.003235,0.606000,0.253000,-10.201000
1779273338210220654,2026-05-20 16:05:38.209,-2.084000,3.035000,36.123000,0.181900,0.254200,0.174500,-0.000984,0.000791,0.002253,0.540000,0.379000,-10.057000
1779273338235232117,2026-05-20 16:05:38.234,-2.087000,3.039000,36.124000,0.180100,0.257200,0.178800,-0.002396,0.005059,-0.001379,0.434000,0.444000,-10.067000
1779273338260189654,2026-05-20 16:05:38.259,-2.088000,3.047000,36.124000,0.180100,0.258100,0.172200,-0.000275,0.005335,-0.000513,0.489000,0.140000,-10.220000
1779273338285241413,2026-05-20 16:05:38.284,-2.089000,3.048000,36.124000,0.181100,0.260100,0.177700,-0.000439,-0.004401,0.001351,0.635000,0.353000,-10.218000
1779273338310176172,2026-05-20 16:05:38.309,-2.088000,3.038000,36.125000,0.181000,0.257200,0.196200,-0.000820,-0.012861,0.001624,0.531000,0.510000,-10.150000
1779273338335204709,2026-05-20 16:05:38.334,-2.088000,3.022000,36.126000,0.179100,0.255200,0.175500,-0.000658,-0.012271,0.000478,0.530000,0.287000,-10.170000
1779273338360342950,2026-05-20 16:05:38.359,-2.090000,3.011000,36.132000,0.180100,0.257200,0.202700,-0.003233,-0.001221,0.001415,0.444000,0.354000,-10.043000
1779273338385153987,2026-05-20 16:05:38.384,-2.093000,3.015000,36.136000,0.183000,0.261100,0.201700,-0.003147,0.005890,0.003497,0.397000,0.297000,-10.050000
1779273338410140135,2026-05-20 16:05:38.409,-2.096000,3.025000,36.140000,0.180100,0.258200,0.197200,-0.001056,0.004347,0.001511,0.563000,0.427000,-10.279000
1779273338435202894,2026-05-20 16:05:38.434,-2.099000,3.025000,36.147000,0.180200,0.259200,0.199400,-0.001655,-0.002248,0.005659,0.534000,0.366000,-10.209000
1779273338460120302,2026-05-20 16:05:38.459,-2.099000,3.014000,36.158000,0.182900,0.255200,0.200700,-0.003541,-0.011960,0.007861,0.657000,0.394000,-10.145000
1779273338485208413,2026-05-20 16:05:38.484,-2.097000,3.001000,36.167000,0.181000,0.255200,0.197300,0.003122,-0.006838,0.006952,0.424000,0.396000,-10.106000
1779273338510167598,2026-05-20 16:05:38.509,-2.097000,2.998000,36.177000,0.182000,0.258200,0.197300,0.000793,0.003719,0.008429,0.370000,0.321000,-10.104000
1779273338535186913,2026-05-20 16:05:38.534,-2.101000,3.008000,36.188000,0.181000,0.256200,0.176600,-0.005010,0.006472,0.007950,0.597000,0.355000,-10.204000
1779273338560127357,2026-05-20 16:05:38.559,-2.104000,3.018000,36.200000,0.183000,0.259200,0.200600,-0.002347,0.003460,0.007154,0.555000,0.459000,-10.150000
1779273338585067413,2026-05-20 16:05:38.584,-2.102000,3.019000,36.208000,0.180100,0.258200,0.179800,0.002756,-0.001393,0.007736,0.611000,0.345000,-10.259000
1779273338610095024,2026-05-20 16:05:38.609,-2.099000,3.015000,36.220000,0.180100,0.255200,0.177700,0.001356,-0.002570,0.008476,0.578000,0.425000,-10.137000
1779273338635135987,2026-05-20 16:05:38.634,-2.098000,3.013000,36.229000,0.182900,0.257100,0.180000,-0.000582,0.004435,0.004931,0.398000,0.335000,-10.029000
1779273338660108283,2026-05-20 16:05:38.659,-2.098000,3.024000,36.238000,0.180100,0.255200,0.176600,0.000611,0.009012,0.003635,0.491000,0.376000,-10.170000
1779273338685025727,2026-05-20 16:05:38.684,-2.098000,3.041000,36.244000,0.182000,0.256200,0.182100,-0.000294,0.012406,0.006779,0.710000,0.251000,-10.194000
1779273338710158042,2026-05-20 16:05:38.709,-2.099000,3.052000,36.249000,0.180000,0.252200,0.179900,-0.001211,0.005562,0.003711,0.670000,0.406000,-10.071000
1779273338735165153,2026-05-20 16:05:38.734,-2.097000,3.054000,36.252000,0.183800,0.257200,0.196300,0.001550,-0.004059,-0.000666,0.437000,0.434000,-10.119000
1779273338760099616,2026-05-20 16:05:38.759,-2.094000,3.050000,36.254000,0.182000,0.257100,0.179900,0.001220,0.000570,0.000523,0.491000,0.195000,-10.181000
1779273338785054635,2026-05-20 16:05:38.784,-2.094000,3.051000,36.255000,0.182000,0.258200,0.202800,-0.001143,0.003943,0.000126,0.524000,0.404000,-10.028000
1779273338810173783,2026-05-20 16:05:38.809,-2.097000,3.063000,36.253000,0.181000,0.253300,0.196200,-0.002048,0.007600,-0.003363,0.532000,0.430000,-10.115000
1779273338835057190,2026-05-20 16:05:38.834,-2.100000,3.075000,36.250000,0.183900,0.257100,0.175700,-0.001512,0.007993,-0.002474,0.661000,0.238000,-10.244000
1779273338860041783,2026-05-20 16:05:38.858,-2.101000,3.074000,36.248000,0.182100,0.260100,0.182100,-0.000770,-0.003391,-0.001001,0.521000,0.403000,-10.077000
1779273338885065561,2026-05-20 16:05:38.884,-2.103000,3.067000,36.245000,0.181100,0.258100,0.182100,-0.003076,-0.009862,-0.002568,0.431000,0.449000,-10.138000
1779273338910093709,2026-05-20 16:05:38.909,-2.105000,3.059000,36.240000,0.182800,0.254200,0.200700,-0.001381,-0.003076,-0.005008,0.588000,0.339000,-10.207000
1779273338935018486,2026-05-20 16:05:38.933,-2.107000,3.053000,36.237000,0.182800,0.251300,0.199600,-0.001133,-0.002158,-0.001446,0.501000,0.365000,-10.121000
1779273338960083357,2026-05-20 16:05:38.959,-2.110000,3.053000,36.236000,0.182900,0.254200,0.177800,-0.005308,-0.002675,-0.000338,0.667000,0.366000,-10.122000
1779273338985070727,2026-05-20 16:05:38.983,-2.115000,3.051000,36.234000,0.182000,0.258100,0.177800,-0.000491,-0.000021,-0.003770,0.516000,0.378000,-10.167000
1779273339010138783,2026-05-20 16:05:39.009,-2.115000,3.046000,36.231000,0.181000,0.256200,0.199500,0.000325,-0.003335,-0.001929,0.423000,0.301000,-10.041000
1779273339035007172,2026-05-20 16:05:39.034,-2.117000,3.038000,36.228000,0.182000,0.256200,0.181000,-0.001104,-0.008829,-0.000061,0.648000,0.340000,-10.228000
1779273339060053672,2026-05-20 16:05:39.059,-2.118000,3.030000,36.228000,0.182900,0.255100,0.175700,-0.001360,-0.004793,-0.001382,0.470000,0.401000,-10.105000
1779273339085050986,2026-05-20 16:05:39.084,-2.117000,3.025000,36.227000,0.179300,0.261100,0.179800,0.002295,0.000633,0.000125,0.505000,0.351000,-10.084000
1779273339110039449,2026-05-20 16:05:39.108,-2.116000,3.028000,36.226000,0.181000,0.254200,0.179900,0.000669,0.000912,0.002703,0.683000,0.330000,-10.134000
1779273339134984116,2026-05-20 16:05:39.133,-2.115000,3.028000,36.230000,0.180100,0.255200,0.172300,0.000067,-0.000481,0.004364,0.596000,0.393000,-10.137000
1779273339198586690,2026-05-20 16:05:39.197,-2.107000,3.022000,36.242000,0.182100,0.260100,0.177800,0.003695,-0.002353,0.005015,0.442000,0.167000,-10.231000
1779273339210046375,2026-05-20 16:05:39.209,-2.104000,3.020000,36.250000,0.183000,0.260100,0.199500,-0.000716,-0.000499,0.006456,0.560000,0.499000,-10.169000
1779273339235004505,2026-05-20 16:05:39.233,-2.102000,3.019000,36.255000,0.181900,0.255200,0.175600,0.000300,0.000237,0.008259,0.520000,0.512000,-10.048000
1779273339260136597,2026-05-20 16:05:39.259,-2.100000,3.025000,36.266000,0.182900,0.258200,0.200600,0.003895,0.005135,0.007293,0.597000,0.375000,-10.208000
1779273339284975542,2026-05-20 16:05:39.283,-2.097000,3.035000,36.277000,0.182900,0.254200,0.178900,-0.000701,0.007733,0.009381,0.522000,0.284000,-10.166000
1779273339310093320,2026-05-20 16:05:39.309,-2.096000,3.042000,36.295000,0.183800,0.256100,0.181100,-0.001454,0.000100,0.011215,0.517000,0.407000,-10.100000
