Timestamp,Time,Roll,Pitch,Yaw,Velocity_Increment_X,Velocity_Increment_Y,Velocity_Increment_Z,Acceleration_X,Acceleration_Y,Acceleration_Z,Angular_Rate_X,Angular_Rate_Y,Angular_Rate_Z,Magnetic_Field_X,Magnetic_Field_Y,Magnetic_Field_Z,Pressure
1779273320887740886,2026-05-20 16:05:20.886,-0.407973,0.204343,139.610626,0.006567,-0.004532,0.978439,0.088357,-0.011892,9.779098,0.005144,0.001663,-0.347413,-0.465761,0.207459,-0.857969,98930.0000
1779273320986801201,2026-05-20 16:05:20.985,-0.458375,0.163231,141.619965,0.007188,-0.000928,0.977978,0.451127,0.000112,9.982110,0.005223,0.000026,-0.351907,-0.474856,0.188367,-0.856980,98934.0000
1779273321086530423,2026-05-20 16:05:21.085,-0.479856,0.130970,143.608612,0.008713,0.000546,0.977946,0.278223,-0.124844,9.858956,-0.001539,0.001760,-0.347819,-0.478859,0.175204,-0.858063,98934.0000
1779273321186530534,2026-05-20 16:05:21.185,-0.467123,0.095189,145.564453,0.009371,0.000607,0.977153,0.268801,-0.185497,9.799807,-0.006511,0.006671,-0.341683,-0.485864,0.158768,-0.858390,98926.0000
1779273321286846219,2026-05-20 16:05:21.285,-0.421915,0.054518,147.517700,0.008516,0.001653,0.976623,0.232563,-0.284711,9.866051,-0.013136,-0.000367,-0.340419,-0.492257,0.144418,-0.858782,98928.0000
1779273321386669552,2026-05-20 16:05:21.385,-0.351336,0.015618,149.506577,0.007815,-0.000505,0.978643,-0.097801,0.079614,9.762263,-0.011688,-0.003323,-0.345019,-0.497148,0.129202,-0.858593,98928.0000
1779273321486542126,2026-05-20 16:05:21.485,-0.287771,-0.008544,151.547546,0.007466,-0.002439,0.980500,-0.001140,0.358247,9.758142,-0.004691,0.004013,-0.364697,-0.500507,0.114645,-0.856659,98925.0000
1779273321586389478,2026-05-20 16:05:21.585,-0.245493,-0.007539,153.614227,0.006968,-0.004330,0.980716,0.004287,0.152001,9.829569,-0.005232,0.000041,-0.361084,-0.506329,0.097016,-0.857287,98928.0000
1779273321686894515,2026-05-20 16:05:21.685,-0.243336,-0.012382,155.649429,0.008456,-0.008152,0.979353,0.253731,0.112562,9.857474,0.011835,0.003550,-0.343319,-0.508556,0.080005,-0.858022,98939.0000
1779273321786397441,2026-05-20 16:05:21.785,-0.259310,-0.031887,157.633728,0.008483,-0.003395,0.977316,-0.190914,-0.188288,9.663782,0.008199,0.002615,-0.344765,-0.510752,0.065401,-0.857916,98929.0000
1779273321886528589,2026-05-20 16:05:21.885,-0.274642,-0.046160,159.582840,0.010504,-0.001211,0.977456,0.265904,-0.171259,9.866907,-0.005325,0.003856,-0.338520,-0.514116,0.049067,-0.855639,98932.0000
1779273321986020293,2026-05-20 16:05:21.984,-0.259590,-0.063865,161.542572,0.009139,0.000354,0.977886,-0.067956,-0.101165,9.840310,0.000432,0.012715,-0.345196,-0.517254,0.033502,-0.857585,98928.0000
1779273322086635885,2026-05-20 16:05:22.085,-0.214262,-0.071469,163.531433,0.007950,0.000513,0.978483,0.199193,-0.090935,9.960567,-0.004524,-0.000988,-0.346887,-0.517908,0.018096,-0.854799,98929.0000
1779273322186630830,2026-05-20 16:05:22.185,-0.154631,-0.072274,165.545624,0.008230,-0.000117,0.979540,0.147911,0.020570,9.800873,-0.008522,-0.006045,-0.355242,-0.517161,0.001075,-0.856509,98928.0000
1779273322286575811,2026-05-20 16:05:22.285,-0.111603,-0.058255,167.554932,0.009450,-0.004235,0.978572,0.110331,0.100416,9.712836,-0.004241,-0.005230,-0.348516,-0.519399,-0.016540,-0.857529,98930.0000
1779273322386860515,2026-05-20 16:05:22.385,-0.082619,-0.033838,169.539688,0.011289,-0.003594,0.978680,0.236131,0.241490,9.821690,0.001556,-0.008810,-0.343736,-0.516490,-0.031672,-0.856341,98928.0000
1779273322486655904,2026-05-20 16:05:22.485,-0.068639,-0.031221,171.497971,0.012450,-0.003410,0.978487,0.300948,0.042117,9.831655,-0.002558,-0.001729,-0.341362,-0.515070,-0.046804,-0.854814,98930.0000
1779273322586495441,2026-05-20 16:05:22.585,-0.057767,-0.057141,173.454803,0.012145,-0.004202,0.978061,0.331278,-0.078727,9.828295,-0.002958,0.005679,-0.342579,-0.515200,-0.063208,-0.855617,98928.0000
1779273322686284533,2026-05-20 16:05:22.685,-0.033237,-0.094397,175.420441,0.010280,-0.003277,0.978151,0.090125,-0.276095,9.781950,-0.004627,0.011511,-0.346598,-0.511123,-0.079261,-0.855636,98926.0000
1779273322786841422,2026-05-20 16:05:22.785,0.003475,-0.125757,177.395676,0.008976,-0.002700,0.978738,0.208516,-0.067411,9.969598,-0.000928,0.002703,-0.335019,-0.510020,-0.095305,-0.854679,98933.0000
1779273322886677644,2026-05-20 16:05:22.885,0.038130,-0.143002,179.375610,0.007295,-0.001835,0.979062,0.063413,0.053654,9.887042,-0.005636,-0.000585,-0.343238,-0.505983,-0.112305,-0.856473,98932.0000
1779273322986561644,2026-05-20 16:05:22.985,0.070460,-0.148315,181.356857,0.007962,-0.002495,0.978672,0.182323,0.173325,9.803285,-0.007254,-0.001450,-0.351960,-0.502193,-0.128342,-0.855884,98928.0000
1779273323087691459,2026-05-20 16:05:23.086,0.098088,-0.148572,183.340591,0.009813,-0.002603,0.979157,0.283145,0.014322,9.739455,-0.003110,0.000021,-0.350998,-0.497553,-0.143860,-0.858030,98924.0000
1779273323186804496,2026-05-20 16:05:23.185,0.122424,-0.156674,185.325897,0.007624,-0.003764,0.977722,-0.161492,-0.228426,9.578992,-0.006903,-0.002832,-0.342624,-0.492538,-0.158077,-0.856616,98930.0000
1779273323286629959,2026-05-20 16:05:23.285,0.139552,-0.163028,187.296631,0.008857,-0.005182,0.978341,0.142382,-0.146316,9.786351,-0.002394,0.002527,-0.340885,-0.486981,-0.173264,-0.857893,98928.0000
1779273323386429662,2026-05-20 16:05:23.385,0.155950,-0.165363,189.256073,0.008371,-0.003529,0.978725,0.098912,-0.084612,9.877936,0.002162,-0.000393,-0.340174,-0.480500,-0.187815,-0.858009,98930.0000
1779273323486975810,2026-05-20 16:05:23.485,0.188314,-0.147569,191.230057,0.008541,-0.001119,0.977863,0.139949,0.044828,9.837683,-0.001143,-0.003820,-0.344390,-0.475200,-0.203229,-0.856874,98934.0000
1779273323586426255,2026-05-20 16:05:23.585,0.233344,-0.126707,193.222504,0.009999,-0.001253,0.978592,-0.037368,0.127603,9.605009,-0.002301,-0.000267,-0.349965,-0.468706,-0.218349,-0.856077,98930.0000
1779273323686207792,2026-05-20 16:05:23.684,0.280262,-0.121365,195.222214,0.010863,-0.004347,0.979224,0.076544,-0.208842,9.596136,-0.003733,0.001416,-0.348533,-0.461953,-0.232645,-0.857705,98930.0000
1779273323786331847,2026-05-20 16:05:23.784,0.304845,-0.111766,197.209961,0.010813,-0.005757,0.979066,0.358682,-0.124146,9.903927,-0.003359,-0.004667,-0.344234,-0.451534,-0.246504,-0.855538,98935.0000
1779273323886716977,2026-05-20 16:05:23.885,0.302854,-0.115330,199.201309,0.010313,-0.003701,0.978086,0.044058,0.286943,9.685506,0.005752,0.005071,-0.347554,-0.443248,-0.259556,-0.855736,98930.0000
1779273323986657958,2026-05-20 16:05:23.985,0.305129,-0.132490,201.201843,0.010322,-0.004149,0.978407,0.119999,-0.263708,9.785000,-0.002570,0.006802,-0.348869,-0.434397,-0.274128,-0.857111,98930.0000
1779273324086283125,2026-05-20 16:05:24.085,0.331149,-0.139634,203.193878,0.008841,-0.001703,0.978344,0.103235,-0.412175,9.847981,-0.003759,0.002080,-0.345968,-0.423407,-0.286261,-0.857099,98927.0000
1779273324186769606,2026-05-20 16:05:24.185,0.371888,-0.131959,205.177765,0.008232,-0.000611,0.979456,-0.024487,-0.199289,9.875356,-0.004248,0.003810,-0.349430,-0.414266,-0.301435,-0.858767,98928.0000
1779273324286639977,2026-05-20 16:05:24.285,0.424098,-0.131925,207.157944,0.009405,-0.004221,0.979598,0.098545,-0.324754,9.816204,-0.009209,0.009419,-0.340734,-0.406544,-0.313255,-0.857480,98932.0000
1779273324386518791,2026-05-20 16:05:24.385,0.472344,-0.141621,209.144791,0.008330,-0.004551,0.978887,0.141500,0.030550,10.004068,-0.003789,0.007304,-0.341733,-0.393481,-0.324230,-0.859049,98928.0000
1779273324486396365,2026-05-20 16:05:24.485,0.493855,-0.161415,211.148926,0.008564,-0.004091,0.977551,0.170768,0.378721,9.876891,0.003179,0.008773,-0.347236,-0.383074,-0.336637,-0.858116,98934.0000
1779273324586566069,2026-05-20 16:05:24.585,0.493933,-0.163313,213.142197,0.007140,-0.005856,0.977019,0.079074,0.189046,9.778069,0.003842,0.000912,-0.345664,-0.371797,-0.347903,-0.859033,98930.0000
1779273324686438643,2026-05-20 16:05:24.685,0.493289,-0.154644,215.117874,0.007119,-0.004195,0.978588,0.275678,-0.210572,9.772307,0.003756,0.006773,-0.341034,-0.359311,-0.358260,-0.859702,98928.0000
1779273324786399717,2026-05-20 16:05:24.784,0.508794,-0.150768,217.084671,0.006712,-0.000196,0.978540,0.110371,0.242810,9.776981,-0.006467,0.007265,-0.344423,-0.347417,-0.369197,-0.859742,98928.0000
1779273324887601680,2026-05-20 16:05:24.886,0.552493,-0.134494,219.058929,0.006597,-0.001600,0.979652,0.175316,0.105016,9.894040,-0.009047,0.000025,-0.347555,-0.334607,-0.379218,-0.859227,98929.0000
1779273324986734698,2026-05-20 16:05:24.985,0.600740,-0.109983,221.043091,0.007496,-0.004296,0.978053,-0.115293,-0.179893,9.552854,0.000215,0.004178,-0.345497,-0.321519,-0.388092,-0.860247,98932.0000
1779273325086647217,2026-05-20 16:05:25.085,0.634559,-0.098026,223.024139,0.009138,-0.005935,0.978558,0.543355,-0.475527,9.974897,0.005905,0.010270,-0.342701,-0.309013,-0.397827,-0.860032,98932.0000
1779273325186320106,2026-05-20 16:05:25.184,0.645783,-0.103031,224.996490,0.006351,-0.007107,0.977858,0.104383,-0.099962,9.785480,0.008071,0.009620,-0.342086,-0.294726,-0.406395,-0.861089,98926.0000
1779273325286978106,2026-05-20 16:05:25.285,0.636582,-0.096975,226.955078,0.005563,-0.004779,0.978305,0.218992,0.019564,9.955368,0.006121,-0.000727,-0.343572,-0.279530,-0.414941,-0.861571,98924.0000
1779273325386679680,2026-05-20 16:05:25.385,0.624544,-0.050099,228.909836,0.004305,-0.002388,0.978128,-0.323723,0.006423,9.684061,-0.000573,-0.011501,-0.346480,-0.267902,-0.422588,-0.861083,98926.0000
1779273325486421661,2026-05-20 16:05:25.484,0.627427,0.017858,230.870285,0.008555,-0.000503,0.979281,0.372667,0.185206,9.966520,-0.001097,-0.005515,-0.343395,-0.252974,-0.431380,-0.859752,98929.0000
1779273325587636328,2026-05-20 16:05:25.586,0.646852,0.082976,229.837296,0.011441,-0.002612,0.978413,0.309645,-0.287725,9.851138,-0.003647,-0.005093,-0.343330,-0.238688,-0.435827,-0.862408,98930.0000
1779273325686793050,2026-05-20 16:05:25.685,0.675523,0.114422,231.812500,0.012730,-0.004859,0.978682,0.062500,0.007446,9.808496,-0.010803,0.000667,-0.339770,-0.223163,-0.443145,-0.861728,98926.0000
1779273325786645068,2026-05-20 16:05:25.785,0.699526,0.098049,233.778061,0.011196,-0.003755,0.977968,0.450479,-0.243060,9.955583,0.001261,0.008819,-0.333855,-0.208849,-0.448431,-0.862565,98936.0000
1779273325886468402,2026-05-20 16:05:25.885,0.714481,0.063140,235.732140,0.008471,-0.002955,0.978121,-0.214379,0.134465,9.669118,-0.006667,0.006435,-0.341162,-0.192413,-0.453660,-0.861958,98932.0000
1779273325987028328,2026-05-20 16:05:25.985,0.721197,0.036496,237.680939,0.007234,-0.003337,0.979783,0.334430,0.233311,9.977294,-0.001088,0.012330,-0.340621,-0.177499,-0.458645,-0.862818,98932.0000
1779273326086659198,2026-05-20 16:05:26.085,0.713248,0.053310,239.625061,0.003681,-0.003211,0.977842,-0.337567,-0.155536,9.479821,-0.001915,-0.001315,-0.344984,-0.162233,-0.462366,-0.861317,98932.0000
1779273326186458809,2026-05-20 16:05:26.185,0.705117,0.103302,241.568207,0.003901,-0.003060,0.977784,-0.165569,-0.181158,9.513283,0.001549,-0.006097,-0.334828,-0.146433,-0.468247,-0.862478,98924.0000
1779273326286630327,2026-05-20 16:05:26.285,0.703421,0.174405,243.520248,0.005579,-0.002026,0.977796,-0.619111,-0.306914,9.450828,-0.004497,-0.008527,-0.340247,-0.131454,-0.468417,-0.861655,98929.0000
1779273326386685846,2026-05-20 16:05:26.385,0.715191,0.242914,245.478615,0.010225,0.001416,0.979245,0.246844,0.546445,9.903030,-0.001091,-0.013421,-0.341164,-0.114468,-0.474309,-0.863446,98935.0000
1779273326486708883,2026-05-20 16:05:26.485,0.736291,0.299305,247.433975,0.011037,-0.001523,0.979220,0.148956,0.252528,9.762043,-0.008290,-0.004964,-0.337086,-0.099481,-0.472405,-0.862972,98931.0000
1779273326586255438,2026-05-20 16:05:26.585,0.759048,0.331469,249.372887,0.011663,-0.003387,0.978286,0.167347,-0.165179,9.658380,-0.005570,0.004806,-0.335406,-0.084242,-0.476757,-0.862656,98931.0000
1779273326687686864,2026-05-20 16:05:26.686,0.759191,0.343965,251.299622,0.009743,-0.004761,0.978414,-0.019446,-0.384193,9.652370,-0.003460,0.002890,-0.333064,-0.067211,-0.475805,-0.864612,98925.0000
1779273326786780401,2026-05-20 16:05:26.785,0.734680,0.355463,253.220573,0.007197,-0.003707,0.978683,0.136023,-0.131667,9.909792,-0.000452,0.001314,-0.326091,-0.051672,-0.477504,-0.865266,98931.0000
1779273326886642808,2026-05-20 16:05:26.885,0.717583,0.376071,255.133766,0.008331,0.000799,0.978900,0.144998,0.382088,9.820654,-0.006670,-0.002939,-0.328519,-0.036403,-0.477392,-0.865057,98933.0000
1779273326986517512,2026-05-20 16:05:26.985,0.714090,0.411618,257.046829,0.008232,-0.000805,0.979297,0.059876,-0.224270,9.713026,-0.004599,0.000222,-0.327755,-0.022319,-0.476386,-0.864540,98925.0000
1779273327087118642,2026-05-20 16:05:27.085,0.721418,0.453103,258.947853,0.008630,-0.003567,0.978626,-0.092769,-0.540800,9.749715,-0.008600,-0.000275,-0.328660,-0.004064,-0.474497,-0.865349,98928.0000
1779273327186522808,2026-05-20 16:05:27.185,0.735064,0.492254,260.832260,0.009446,0.000037,0.978575,0.202917,0.204198,9.807916,-0.005017,0.000367,-0.333946,0.008786,-0.474148,-0.866585,98933.0000
1779273327286602938,2026-05-20 16:05:27.285,0.741354,0.529536,262.709358,0.009736,-0.003362,0.977597,0.057494,0.086885,9.793079,0.001261,-0.001004,-0.324942,0.024389,-0.470445,-0.865871,98930.0000
1779273327386412179,2026-05-20 16:05:27.385,0.732153,0.553956,264.595314,0.011020,-0.003014,0.978719,-0.008215,0.171771,9.775204,0.002435,0.005239,-0.328982,0.039948,-0.468284,-0.866918,98930.0000
1779273327486954493,2026-05-20 16:05:27.485,0.715813,0.564527,266.490601,0.010768,0.000556,0.978123,0.111665,0.354817,9.683935,-0.000754,0.007214,-0.345304,0.055236,-0.465197,-0.866781,98930.0000
1779273327586454641,2026-05-20 16:05:27.585,0.692884,0.570719,268.393242,0.009936,-0.004311,0.978320,0.017463,-0.228370,9.655542,-0.003409,0.005896,-0.332205,0.071115,-0.460645,-0.867594,98930.0000
1779273327686539364,2026-05-20 16:05:27.685,0.661408,0.575069,270.287392,0.009469,-0.002181,0.979291,0.513056,-0.030477,10.019739,-0.000597,0.005367,-0.326030,0.085511,-0.456083,-0.867770,98924.0000
1779273327786273678,2026-05-20 16:05:27.784,0.635048,0.587186,272.175346,0.006801,-0.000602,0.978721,0.385604,-0.423636,10.247620,0.008154,0.006696,-0.333592,0.100214,-0.453568,-0.866705,98940.0000
1779273327886688586,2026-05-20 16:05:27.885,0.624053,0.623949,274.062302,0.005406,0.002015,0.977645,-0.037923,0.220313,9.510228,-0.002781,0.000537,-0.328690,0.115213,-0.446343,-0.867560,98921.0000
1779273327986472567,2026-05-20 16:05:27.985,0.622322,0.699601,275.955193,0.007649,0.002087,0.978277,-0.122621,0.116032,9.679731,-0.013692,-0.019453,-0.335530,0.127510,-0.441506,-0.867988,98926.0000
1779273328086429752,2026-05-20 16:05:28.085,0.611101,0.776132,277.844162,0.012054,-0.004281,0.978460,-0.051484,-0.153342,9.724124,-0.001980,-0.005897,-0.320664,0.143093,-0.435774,-0.869122,98927.0000
1779273328186678067,2026-05-20 16:05:28.185,0.589124,0.824926,279.662750,0.015010,-0.002353,0.979247,0.205406,0.113899,9.793437,-0.001551,0.002298,-0.308818,0.155711,-0.428546,-0.869317,98930.0000
1779273328286654067,2026-05-20 16:05:28.285,0.552997,0.837022,281.347786,0.015523,-0.005723,0.978302,0.132616,-0.361247,9.750623,0.007294,0.007320,-0.284790,0.168606,-0.423705,-0.869761,98935.0000
1779273328386489400,2026-05-20 16:05:28.385,0.505699,0.802595,282.903664,0.016039,-0.001528,0.979620,0.105585,0.331821,9.710874,0.007477,0.015300,-0.261144,0.180958,-0.416425,-0.868150,98926.0000
1779273328487808345,2026-05-20 16:05:28.486,0.466749,0.730455,284.345078,0.012341,-0.002096,0.979014,0.213652,0.039013,9.731719,-0.004768,0.004218,-0.238318,0.189349,-0.411639,-0.869378,98934.0000
1779273328586883233,2026-05-20 16:05:28.585,0.436469,0.841229,285.659668,0.009235,0.000962,0.974337,0.160654,0.094747,9.660719,-0.005320,-0.047090,-0.222067,0.200761,-0.404138,-0.870148,98926.0000
1779273328686394252,2026-05-20 16:05:28.685,0.442128,1.221530,286.880325,0.023367,-0.000339,0.976007,0.398609,0.191347,9.731804,-0.011114,-0.078876,-0.205870,0.205878,-0.399346,-0.870394,98932.0000
1779273328786325437,2026-05-20 16:05:28.784,0.460475,1.801876,287.954277,0.043859,-0.005932,0.972073,0.544815,-0.171368,9.757519,-0.008263,-0.135972,-0.163244,0.210041,-0.393765,-0.873932,98935.0000
1779273328886803418,2026-05-20 16:05:28.885,0.471851,2.896291,288.705780,0.077705,-0.008091,0.969314,0.898101,-0.389758,9.823824,-0.000839,-0.215068,-0.099404,0.208768,-0.390949,-0.879066,98928.0000
1779273328986693455,2026-05-20 16:05:28.985,0.478681,4.142914,289.141266,0.138908,-0.010290,0.973107,1.390162,-0.268320,9.469085,-0.008896,-0.199105,-0.062459,0.204791,-0.388168,-0.884730,98926.0000
1779273329086377640,2026-05-20 16:05:29.085,0.453618,4.937511,289.391106,0.189600,-0.010639,0.977285,1.856776,0.299844,9.688517,0.001595,-0.082079,-0.031727,0.200528,-0.386841,-0.889152,98930.0000
1779273329187882566,2026-05-20 16:05:29.186,0.403220,4.985580,289.475876,0.210024,-0.011030,0.977004,2.222836,0.248515,9.939866,0.010127,0.056852,0.004595,0.200526,-0.387138,-0.889145,98931.0000
1779273329287023548,2026-05-20 16:05:29.285,0.340784,4.342137,289.313583,0.189850,-0.007018,0.971219,2.473150,0.016971,9.591339,0.008969,0.152350,0.052599,0.202944,-0.388558,-0.887372,98932.0000
1779273329386811400,2026-05-20 16:05:29.385,0.279004,3.348937,288.898041,0.142481,0.000255,0.969914,0.858688,0.044107,9.271716,0.012120,0.171261,0.080357,0.206959,-0.388922,-0.880568,98935.0000
1779273329486584122,2026-05-20 16:05:29.485,0.225793,2.447152,288.367897,0.095511,0.005671,0.969411,0.452715,0.012410,9.637109,0.003056,0.129492,0.083187,0.209376,-0.396230,-0.876555,98929.0000
1779273329587683492,2026-05-20 16:05:29.586,0.199511,2.030416,287.844940,0.052173,0.005601,0.967039,-0.043103,-0.039467,9.379876,0.006075,0.012337,0.094974,0.208530,-0.395271,-0.874158,98928.0000
1779273329686803899,2026-05-20 16:05:29.685,0.198081,2.272880,287.351524,0.053675,0.005727,0.973804,0.953697,-0.156346,9.709164,0.008385,-0.085353,0.092934,0.204307,-0.398886,-0.874563,98935.0000
1779273329786892418,2026-05-20 16:05:29.785,0.205890,3.002797,286.907814,0.074100,0.004621,0.974989,0.477394,-0.419873,9.492787,-0.004132,-0.155486,0.075575,0.196139,-0.400847,-0.878507,98933.0000
1779273329886728807,2026-05-20 16:05:29.885,0.211883,3.866067,286.510193,0.117268,0.004147,0.975303,0.869466,0.188372,9.795359,-0.008397,-0.131009,0.063885,0.187133,-0.401245,-0.879768,98928.0000
1779273329987100140,2026-05-20 16:05:29.985,0.214805,4.469222,286.189827,0.148368,0.000846,0.975256,2.371389,0.195358,10.039696,0.005079,-0.060687,0.046694,0.182840,-0.402911,-0.884717,98930.0000
1779273330087034399,2026-05-20 16:05:30.085,0.206949,4.482491,285.927658,0.155415,0.000425,0.975574,1.594141,-0.007845,9.699299,0.004618,0.057955,0.040697,0.179577,-0.403770,-0.882814,98935.0000
1779273330186357269,2026-05-20 16:05:30.185,0.181925,3.902750,285.700806,0.129904,0.000283,0.972341,0.708038,0.115558,9.490349,0.003099,0.137188,0.036512,0.182626,-0.406016,-0.878939,98935.0000
1779273330288533658,2026-05-20 16:05:30.286,0.146616,3.028076,285.493271,0.084126,0.001472,0.974170,0.658580,0.279174,9.632434,0.008588,0.151343,0.035890,0.185045,-0.407137,-0.877174,98933.0000
1779273330386833029,2026-05-20 16:05:30.385,0.132718,2.296222,285.294693,0.034702,0.002784,0.978304,0.036948,-0.098825,9.813056,0.001376,0.101783,0.031900,0.188972,-0.406464,-0.875491,98934.0000
1779273330486669584,2026-05-20 16:05:30.485,0.136726,1.976178,285.101852,-0.000449,0.005015,0.979016,0.322406,0.312315,10.014793,-0.007031,0.006274,0.028371,0.190827,-0.407536,-0.871913,98926.0000
1779273330586180973,2026-05-20 16:05:30.584,0.159206,2.118379,284.912926,0.002926,-0.001547,0.980586,-0.754349,-0.046881,9.475436,0.000216,-0.057896,0.036805,0.189013,-0.407871,-0.872759,98936.0000
1779273330686851899,2026-05-20 16:05:30.685,0.175293,2.547645,284.730522,0.030012,-0.001214,0.980459,0.395969,0.405185,9.598490,-0.000315,-0.077409,0.028355,0.183897,-0.408245,-0.874119,98931.0000
1779273330786792621,2026-05-20 16:05:30.785,0.164540,2.960235,284.565918,0.052596,-0.004356,0.977719,0.964436,-0.344320,9.763021,0.005584,-0.048785,0.030145,0.180556,-0.410114,-0.876089,98924.0000
1779273330886800658,2026-05-20 16:05:30.885,0.109423,3.058792,284.398094,0.065744,-0.002175,0.976452,0.946932,0.282232,10.029798,0.006486,-0.014000,0.033849,0.179953,-0.410713,-0.876059,98921.0000
1779273330987864417,2026-05-20 16:05:30.986,0.055729,2.853710,284.239716,0.071350,0.002432,0.979242,0.340759,0.172081,9.626480,0.004270,0.067502,0.012864,0.179040,-0.412215,-0.876300,98933.0000
1779273331086866436,2026-05-20 16:05:31.085,0.037912,2.492520,284.080528,0.046753,0.002419,0.977435,0.249467,-0.296054,9.729467,0.000506,0.076943,0.028610,0.181494,-0.411515,-0.873380,98931.0000
1779273331186717010,2026-05-20 16:05:31.185,0.046688,2.114634,283.919380,0.023183,0.003612,0.976269,0.381763,-0.119633,9.886401,-0.004298,0.045877,0.029032,0.182707,-0.412365,-0.872191,98935.0000
1779273331286553435,2026-05-20 16:05:31.285,0.080482,1.909039,283.788971,0.013407,0.001328,0.978903,-0.491920,0.316491,9.659024,-0.005343,0.013006,0.019925,0.182088,-0.414758,-0.872418,98927.0000
1779273331387751713,2026-05-20 16:05:31.386,0.135679,1.971594,283.689125,0.011643,-0.001558,0.980006,0.082964,0.144270,9.926521,-0.011222,-0.020857,0.010907,0.182692,-0.412094,-0.873097,98932.0000
1779273331486987250,2026-05-20 16:05:31.485,0.169220,2.191860,283.600960,0.012216,-0.004873,0.975951,0.378447,-0.258744,9.769900,-0.010831,-0.052597,0.006102,0.180299,-0.412992,-0.872714,98939.0000
1779273331586729269,2026-05-20 16:05:31.585,0.158884,2.427340,283.525444,0.030200,-0.006084,0.977897,0.136766,0.152565,9.662935,-0.000654,-0.038210,0.010439,0.177279,-0.411288,-0.874778,98927.0000
1779273331686617528,2026-05-20 16:05:31.685,0.116779,2.614108,283.463440,0.040765,-0.006509,0.976779,0.279047,-0.181109,9.824246,0.014089,-0.015526,0.013272,0.176383,-0.413648,-0.873799,98925.0000
1779273331786796694,2026-05-20 16:05:31.785,0.055871,2.684608,283.410454,0.042431,-0.001349,0.976324,0.760926,-0.156653,9.915120,0.015318,0.004597,0.011892,0.175760,-0.413985,-0.874974,98935.0000
1779273331886594509,2026-05-20 16:05:31.885,-0.011748,2.625472,283.371719,0.036634,-0.001180,0.976367,0.467470,-0.366999,9.830172,0.012050,0.006132,0.005126,0.176099,-0.413036,-0.873206,98931.0000
1779273331986596639,2026-05-20 16:05:31.985,-0.047793,2.565796,283.340111,0.033933,0.003280,0.980000,0.258680,0.247818,9.861995,0.004827,0.018065,0.004254,0.177589,-0.415687,-0.872581,98926.0000
1779273332087759528,2026-05-20 16:05:32.086,-0.049088,2.545279,283.305450,0.028104,0.000475,0.979834,-0.139809,0.014807,9.758600,0.002647,0.004810,0.013337,0.175807,-0.414499,-0.872264,98932.0000
1779273332186634787,2026-05-20 16:05:32.185,-0.037687,2.565847,283.264595,0.026961,-0.000029,0.978973,-0.033552,0.049669,9.655761,-0.004125,-0.013099,0.008636,0.176974,-0.414834,-0.873785,98920.0000
1779273332286642435,2026-05-20 16:05:32.285,-0.015212,2.598843,283.230637,0.031793,-0.003177,0.979415,0.345131,-0.230502,9.628949,-0.002362,-0.010122,0.016730,0.174888,-0.416010,-0.872804,98932.0000
1779273332386598027,2026-05-20 16:05:32.385,0.012808,2.668751,283.213768,0.032939,-0.002529,0.976884,0.567220,-0.189951,9.943455,-0.000715,-0.011726,0.002332,0.175171,-0.415152,-0.874032,98930.0000
1779273332487818675,2026-05-20 16:05:32.486,0.024479,2.730961,283.210449,0.031145,-0.005077,0.975610,0.139951,0.089656,9.736236,-0.000144,-0.013826,-0.002168,0.176657,-0.414863,-0.874676,98922.0000
1779273332586903787,2026-05-20 16:05:32.585,0.003106,2.749314,283.221054,0.036796,-0.005401,0.977632,0.463996,-0.329286,9.861839,0.005688,-0.002844,-0.000757,0.174561,-0.414290,-0.874937,98934.0000
1779273332686685453,2026-05-20 16:05:32.685,-0.034508,2.755101,283.250771,0.037111,-0.004883,0.979431,0.435815,-0.237003,9.880769,0.016492,0.010234,-0.002817,0.176070,-0.415733,-0.873741,98924.0000
1779273332786365194,2026-05-20 16:05:32.784,-0.071933,2.754485,283.299553,0.033949,-0.001243,0.978620,0.322424,-0.335384,9.809156,0.006694,-0.000439,-0.018890,0.175765,-0.414860,-0.874354,98937.0000
1779273332886851583,2026-05-20 16:05:32.885,-0.098577,2.747624,283.370689,0.032974,-0.002303,0.978045,0.632571,-0.354318,9.816148,0.002308,-0.004829,-0.012960,0.176688,-0.414520,-0.873186,98925.0000
1779273332986644138,2026-05-20 16:05:32.985,-0.109550,2.764268,283.448044,0.036442,-0.001062,0.978061,0.567986,-0.222378,9.751145,-0.003011,-0.007443,-0.018274,0.177000,-0.414203,-0.872601,98937.0000
1779273333086521046,2026-05-20 16:05:33.085,-0.104793,2.778049,283.534386,0.033789,-0.003632,0.977766,0.466372,-0.501894,9.884640,0.001862,0.000871,-0.009446,0.177294,-0.411559,-0.873872,98932.0000
1779273333185995416,2026-05-20 16:05:33.184,-0.101815,2.784320,283.637596,0.034654,-0.002656,0.977787,0.286897,-0.579425,9.812837,0.001133,0.000068,-0.025718,0.178165,-0.413068,-0.874758,98929.0000
1779273333286741638,2026-05-20 16:05:33.285,-0.102578,2.806443,283.759216,0.033957,-0.004435,0.978574,0.327302,-0.038300,9.838793,-0.000947,-0.003412,-0.022221,0.180568,-0.412449,-0.874534,98929.0000
1779273333386651138,2026-05-20 16:05:33.385,-0.116796,2.832320,283.892899,0.036519,-0.006252,0.978646,0.465691,-0.068693,9.898932,0.000218,0.002162,-0.020304,0.179725,-0.410895,-0.872151,98934.0000
1779273333486556675,2026-05-20 16:05:33.485,-0.135314,2.839276,284.033592,0.036644,-0.006118,0.978167,0.065955,-0.316980,9.771151,0.000409,-0.002204,-0.024241,0.181222,-0.409118,-0.872831,98929.0000
1779273333587056138,2026-05-20 16:05:33.585,-0.146189,2.840624,284.162514,0.039690,-0.004859,0.978248,0.347557,0.056415,9.698649,0.005715,0.004076,-0.021415,0.182983,-0.410045,-0.874353,98929.0000
1779273333686782138,2026-05-20 16:05:33.685,-0.144496,2.831202,284.283646,0.034653,-0.004867,0.976374,0.457284,-0.219882,9.683707,-0.002565,0.001118,-0.006960,0.183242,-0.411874,-0.875815,98929.0000
1779273333786609601,2026-05-20 16:05:33.785,-0.132282,2.811282,284.409340,0.036161,-0.004620,0.977341,0.433679,-0.335468,9.753018,-0.004127,0.001694,-0.022506,0.182429,-0.409977,-0.871941,98926.0000
1779273333886515267,2026-05-20 16:05:33.885,-0.123366,2.801661,284.539070,0.033622,-0.005679,0.978132,0.362419,-0.192016,9.912715,0.005425,-0.005577,-0.020554,0.184456,-0.408304,-0.876232,98922.0000
1779273333986985286,2026-05-20 16:05:33.985,-0.121916,2.801693,284.667603,0.032404,-0.005877,0.977907,0.197517,0.141826,9.661574,0.000251,-0.002972,-0.016294,0.184475,-0.409747,-0.874698,98934.0000
1779273334086630323,2026-05-20 16:05:34.085,-0.123265,2.836608,284.784874,0.036016,-0.008389,0.979294,0.388030,-0.097855,9.834633,0.003603,0.006806,-0.014411,0.185657,-0.409469,-0.875634,98926.0000
1779273334186440100,2026-05-20 16:05:34.185,-0.134052,2.859547,284.891525,0.033546,-0.005753,0.977633,0.370030,-0.039383,9.933754,0.003213,-0.008779,-0.017508,0.186552,-0.407994,-0.876292,98931.0000
1779273334286536026,2026-05-20 16:05:34.285,-0.154977,2.855975,284.995354,0.037852,-0.006145,0.978444,0.407968,-0.355257,9.966899,0.006596,-0.004018,-0.015313,0.189576,-0.407335,-0.874886,98923.0000
1779273334386659119,2026-05-20 16:05:34.385,-0.172761,2.846058,285.116554,0.040724,-0.004352,0.978644,0.200883,-0.349763,9.666101,0.008230,0.014842,-0.015519,0.188983,-0.407330,-0.874571,98928.0000
1779273334486603322,2026-05-20 16:05:34.485,-0.187335,2.836463,285.250130,0.034843,-0.004731,0.976995,0.618858,-0.152294,9.893331,0.007798,0.003744,-0.019199,0.190801,-0.405516,-0.874061,98929.0000
1779273334587872322,2026-05-20 16:05:34.586,-0.195277,2.809275,285.393143,0.033243,-0.003595,0.976456,0.550234,-0.266578,9.730289,-0.006708,-0.003867,-0.027838,0.192284,-0.404938,-0.875012,98935.0000
1779273334686983693,2026-05-20 16:05:34.685,-0.203942,2.785805,285.539726,0.034082,-0.005851,0.978736,0.179140,-0.556819,9.633131,0.001235,0.003032,-0.021923,0.191981,-0.404651,-0.875311,98935.0000
1779273334786836952,2026-05-20 16:05:34.785,-0.206802,2.787342,285.678131,0.033143,-0.004711,0.978712,0.204917,-0.325688,9.514085,-0.000584,-0.001789,-0.028226,0.192602,-0.404612,-0.874128,98932.0000
1779273334886907470,2026-05-20 16:05:34.885,-0.214828,2.798197,285.817352,0.031322,-0.005645,0.977462,0.412670,-0.340207,9.675741,-0.002639,-0.009396,-0.034268,0.194998,-0.402532,-0.874839,98933.0000
1779273334986672637,2026-05-20 16:05:34.985,-0.232232,2.807437,285.954437,0.032896,-0.004676,0.977541,0.289043,-0.010717,9.622282,0.001468,-0.006344,-0.029407,0.195017,-0.402207,-0.873947,98929.0000
1779273335086909822,2026-05-20 16:05:35.085,-0.247452,2.839642,286.096939,0.035157,-0.005848,0.977350,0.210922,-0.014439,9.548917,0.002003,-0.000151,-0.032336,0.196185,-0.402245,-0.875476,98931.0000
1779273335186754137,2026-05-20 16:05:35.185,-0.257416,2.875744,286.233452,0.033504,-0.004892,0.977823,0.460925,0.142249,9.790835,-0.001937,-0.008027,-0.028277,0.197092,-0.401635,-0.875214,98922.0000
1779273335287854396,2026-05-20 16:05:35.286,-0.269852,2.888565,286.372780,0.035523,-0.005098,0.977905,0.091244,0.260138,9.745187,-0.000730,-0.005886,-0.024687,0.198571,-0.401653,-0.876151,98933.0000
1779273335387258063,2026-05-20 16:05:35.385,-0.274428,2.902930,286.509796,0.038113,-0.004845,0.979865,0.046281,0.532323,9.755755,-0.001315,0.001251,-0.032984,0.198890,-0.400443,-0.875588,98931.0000
1779273335487014840,2026-05-20 16:05:35.485,-0.268321,2.910512,286.653954,0.037624,-0.005220,0.977936,0.227114,0.396915,9.881780,0.001655,0.004581,-0.028007,0.200094,-0.398361,-0.875968,98944.0000
1779273335586768748,2026-05-20 16:05:35.585,-0.263462,2.901973,286.788651,0.035477,-0.006869,0.977611,0.355002,0.615148,9.793427,0.003911,-0.001675,-0.020066,0.202207,-0.398024,-0.875130,98931.0000
1779273335686635748,2026-05-20 16:05:35.685,-0.273396,2.867286,286.910980,0.036603,-0.007051,0.977291,0.411096,-0.000514,9.797115,0.004739,0.005184,-0.016028,0.202806,-0.398020,-0.875146,98939.0000
1779273335787031081,2026-05-20 16:05:35.785,-0.277780,2.848423,287.030708,0.034946,-0.006126,0.977740,0.055440,-0.094313,9.703395,0.001514,0.008836,-0.015081,0.203410,-0.397124,-0.875182,98930.0000
1779273335886804155,2026-05-20 16:05:35.885,-0.287192,2.848477,287.153564,0.033177,-0.003864,0.977337,0.060216,-0.153341,9.677407,0.008890,0.001184,-0.014446,0.204601,-0.398009,-0.875191,98928.0000
1779273335986466285,2026-05-20 16:05:35.985,-0.295880,2.862254,287.278320,0.032482,-0.005035,0.977619,0.303202,-0.245528,9.726415,0.001098,-0.011334,-0.017219,0.204607,-0.395349,-0.875855,98922.0000
1779273336087934636,2026-05-20 16:05:36.086,-0.303066,2.896437,287.405754,0.037893,-0.002719,0.978447,0.421447,0.055951,9.662885,-0.002856,-0.009214,-0.025252,0.205553,-0.395560,-0.873175,98930.0000
1779273336186673136,2026-05-20 16:05:36.185,-0.303114,2.946722,287.540154,0.035821,-0.003571,0.977975,0.489692,0.053997,9.712139,-0.002016,-0.004136,-0.028114,0.205788,-0.395955,-0.876471,98924.0000
1779273336286886488,2026-05-20 16:05:36.285,-0.308527,2.963418,287.638298,0.037340,-0.005877,0.978057,0.457197,-0.035472,9.687414,-0.005510,-0.005745,-0.013382,0.207016,-0.394721,-0.875332,98926.0000
1779273336386781525,2026-05-20 16:05:36.385,-0.323036,2.962399,287.654289,0.037405,-0.005255,0.978289,0.163334,-0.176507,9.547423,0.003584,0.001067,-0.005696,0.207601,-0.393265,-0.876581,98930.0000
1779273336487071506,2026-05-20 16:05:36.485,-0.339867,2.922689,287.643227,0.039723,-0.002718,0.979667,-0.177191,0.237292,9.572108,0.004803,0.004363,0.003531,0.208490,-0.395334,-0.876254,98928.0000
1779273336586845006,2026-05-20 16:05:36.585,-0.353568,2.871539,287.641693,0.035605,0.000230,0.977833,0.442600,-0.005045,9.677058,-0.001462,0.010581,-0.005021,0.208210,-0.395011,-0.875355,98931.0000
1779273336686546062,2026-05-20 16:05:36.685,-0.356258,2.836855,287.641769,0.031289,-0.002399,0.977046,0.107613,0.047138,9.701346,-0.000007,0.002814,0.002213,0.207900,-0.395031,-0.875947,98924.0000
1779273336786348025,2026-05-20 16:05:36.784,-0.345260,2.825464,287.633736,0.032771,-0.001404,0.977913,-0.183381,-0.334634,9.618288,-0.006774,-0.005370,0.008152,0.207622,-0.393527,-0.875376,98924.0000
1779273336886722969,2026-05-20 16:05:36.885,-0.325202,2.845333,287.618050,0.034666,-0.002012,0.977357,0.093840,-0.268918,9.787138,-0.005839,-0.008710,0.006740,0.206420,-0.395897,-0.874689,98946.0000
1779273336986787247,2026-05-20 16:05:36.985,-0.308720,2.900801,287.609634,0.033225,-0.002989,0.976822,-0.036220,0.213614,9.673866,-0.004089,-0.019472,0.001091,0.206131,-0.394411,-0.874717,98925.0000
1779273337087054210,2026-05-20 16:05:37.085,-0.298243,2.947693,287.601189,0.037882,-0.003108,0.978415,0.662726,0.089865,9.660440,-0.003119,-0.009625,0.003446,0.207006,-0.393558,-0.876259,98931.0000
1779273337187927062,2026-05-20 16:05:37.186,-0.298279,2.966513,287.583984,0.040053,-0.005161,0.978348,0.383382,-0.112442,9.674284,0.003595,0.002734,0.006962,0.207898,-0.393561,-0.876582,98928.0000
1779273337286734654,2026-05-20 16:05:37.285,-0.307780,2.958174,287.551750,0.037996,-0.004898,0.977474,0.497166,-0.328474,9.860811,0.006247,0.004568,0.005926,0.205219,-0.394146,-0.875600,98925.0000
1779273337386433747,2026-05-20 16:05:37.385,-0.329707,2.920557,287.515709,0.034977,-0.002139,0.978074,0.494530,-0.049440,9.858459,0.005752,0.009454,0.009623,0.205817,-0.395026,-0.875294,98936.0000
1779273337487826691,2026-05-20 16:05:37.486,-0.339547,2.897425,287.497894,0.034442,-0.000490,0.978855,-0.319735,0.078519,9.643334,0.003672,0.002606,0.000163,0.206709,-0.394146,-0.875938,98934.0000
1779273337586945691,2026-05-20 16:05:37.585,-0.337342,2.898867,287.490349,0.036069,-0.000324,0.979243,0.404467,-0.074321,9.805456,-0.000221,-0.004579,-0.005034,0.206135,-0.394699,-0.874410,98928.0000
1779273337686885617,2026-05-20 16:05:37.685,-0.323963,2.909219,287.481728,0.034128,-0.001618,0.976349,0.618927,0.055264,9.747282,-0.001502,-0.005046,-0.003866,0.206734,-0.392928,-0.875068,98927.0000
1779273337786632135,2026-05-20 16:05:37.785,-0.311681,2.921167,287.473839,0.037368,-0.003538,0.977404,0.427609,-0.394733,9.804043,-0.004296,-0.006807,-0.004698,0.204901,-0.393588,-0.876805,98924.0000
1779273337886778487,2026-05-20 16:05:37.885,-0.305754,2.929792,287.466850,0.037189,-0.004524,0.977388,0.679771,-0.176674,9.924957,0.004662,-0.003352,0.000966,0.204901,-0.393588,-0.876805,98935.0000
1779273337987018117,2026-05-20 16:05:37.985,-0.317583,2.937495,287.466164,0.037375,-0.004231,0.978311,0.344178,0.042721,9.793154,0.011135,0.014198,0.001534,0.205809,-0.395332,-0.875586,98922.0000
1779273338086606839,2026-05-20 16:05:38.085,-0.339600,2.933651,287.460670,0.034226,-0.001993,0.978742,0.306114,0.189785,9.903634,-0.001546,-0.005360,-0.006899,0.207303,-0.395621,-0.875618,98927.0000
1779273338186691802,2026-05-20 16:05:38.185,-0.352922,2.914581,287.454819,0.038637,-0.001145,0.979170,0.483187,0.231113,9.902819,0.004604,0.002567,-0.003094,0.205226,-0.395607,-0.874665,98927.0000
1779273338286861654,2026-05-20 16:05:38.285,-0.347634,2.920866,287.448547,0.039517,-0.001538,0.978435,0.618867,-0.309247,9.748034,0.006571,0.013214,-0.006742,0.205217,-0.394443,-0.875593,98927.0000
1779273338386778098,2026-05-20 16:05:38.385,-0.342113,2.906714,287.454071,0.028945,-0.001246,0.975053,0.783889,-0.257893,10.010028,-0.002341,-0.007267,-0.000563,0.206101,-0.392986,-0.876850,98927.0000
1779273338486558116,2026-05-20 16:05:38.485,-0.339255,2.874930,287.481812,0.035504,-0.002775,0.978722,0.287574,-0.198015,9.791004,0.003325,0.002944,-0.001917,0.206423,-0.394716,-0.875017,98929.0000
1779273338587869264,2026-05-20 16:05:38.586,-0.337395,2.889955,287.517097,0.036446,-0.003174,0.979739,0.243829,0.243420,9.839746,0.005481,0.000103,-0.010445,0.206707,-0.394443,-0.875930,98920.0000
1779273338686956487,2026-05-20 16:05:38.685,-0.337038,2.920718,287.534523,0.035333,-0.004178,0.977856,0.729473,0.137709,10.040026,-0.002183,-0.000272,-0.005603,0.207313,-0.394133,-0.875654,98938.0000
1779273338786797653,2026-05-20 16:05:38.785,-0.340565,2.929676,287.528130,0.037471,-0.003666,0.977004,0.530522,-0.419223,9.797394,-0.001808,-0.012314,-0.002840,0.207593,-0.395339,-0.876232,98937.0000
1779273338886723227,2026-05-20 16:05:38.885,-0.327974,2.926755,287.504753,0.040059,-0.003314,0.978468,0.572997,-0.155907,9.894225,0.004862,0.002780,0.005130,0.205798,-0.394467,-0.876507,98924.0000
1779273338986511931,2026-05-20 16:05:38.985,-0.318151,2.909447,287.482628,0.037285,-0.002615,0.977864,0.427809,-0.198162,9.743473,0.004160,0.011073,0.003629,0.205204,-0.393875,-0.876506,98931.0000
1779273339087025097,2026-05-20 16:05:39.085,-0.316708,2.889790,287.469246,0.033726,-0.002610,0.977034,0.282011,0.133052,9.788804,0.005300,0.005525,0.004616,0.206096,-0.394762,-0.876507,98927.0000
1779273339186656801,2026-05-20 16:05:39.185,-0.330315,2.882710,287.479858,0.036264,-0.002777,0.978587,0.415856,0.146871,9.860034,0.008197,-0.003571,-0.006869,0.205508,-0.394748,-0.875893,98920.0000
1779273339286642264,2026-05-20 16:05:39.285,-0.337928,2.906231,287.514366,0.035285,-0.001437,0.977901,0.690827,0.015656,9.901143,-0.003487,-0.004904,-0.013698,0.206423,-0.393832,-0.875338,98933.0000
1779273339386786560,2026-05-20 16:05:39.385,-0.344548,2.922869,287.574211,0.033757,-0.003861,0.977294,0.340083,-0.169991,9.838114,-0.002572,-0.015847,-0.012727,0.207586,-0.393878,-0.877166,98929.0000
1779273339486640894,2026-05-20 16:05:39.485,-0.341008,2.948235,287.643646,0.041182,-0.003251,0.979302,0.519294,-0.103911,9.811807,-0.001507,-0.004510,-0.009371,0.207902,-0.393850,-0.876275,98919.0000
1779273339586552319,2026-05-20 16:05:39.585,-0.334451,2.964616,287.722763,0.039288,-0.004025,0.978269,0.914459,0.224196,10.051279,0.005319,0.000068,-0.016735,0.209119,-0.393220,-0.875421,98931.0000
1779273339687808023,2026-05-20 16:05:39.686,-0.325534,2.951056,287.796837,0.038743,-0.005609,0.977596,0.422819,0.014047,9.791159,-0.001081,0.009133,-0.012776,0.208807,-0.393537,-0.876006,98932.0000
1779273339786951375,2026-05-20 16:05:39.785,-0.325072,2.877332,287.853432,0.038608,-0.005356,0.978333,0.229160,-0.159865,9.848587,0.002494,0.022999,-0.015708,0.209385,-0.393272,-0.877226,98933.0000
1779273339886897912,2026-05-20 16:05:39.885,-0.331954,2.809869,287.881470,0.033338,-0.006121,0.977492,0.482859,-0.077752,9.894248,0.005840,0.012232,-0.007425,0.209419,-0.391451,-0.876071,98935.0000
1779273339986624986,2026-05-20 16:05:39.985,-0.339148,2.760966,287.897964,0.027665,-0.004563,0.977522,0.066998,-0.340373,9.548310,0.008561,0.002564,-0.003201,0.210905,-0.392046,-0.876395,98922.0000
1779273340087031356,2026-05-20 16:05:40.085,-0.338562,2.785158,287.916222,0.032380,-0.001904,0.979456,0.531534,0.135084,9.846773,-0.001383,0.003074,-0.007115,0.211818,-0.392311,-0.875512,98922.0000
1779273340186755782,2026-05-20 16:05:40.185,-0.334847,2.852694,287.938873,0.031088,-0.004870,0.977194,-0.089867,-0.197746,9.712461,-0.005301,-0.015504,0.001634,0.211496,-0.392348,-0.876703,98931.0000
1779273340286731115,2026-05-20 16:05:40.285,-0.337915,2.906706,287.961128,0.035889,-0.002881,0.977235,0.372982,0.063506,9.766469,0.001114,-0.020532,-0.000560,0.210317,-0.391445,-0.876094,98934.0000
1779273340386803652,2026-05-20 16:05:40.385,-0.343072,2.936854,287.993515,0.038918,-0.002334,0.977686,0.357446,0.216758,9.704442,0.002254,-0.007310,-0.008250,0.210305,-0.390579,-0.877014,98931.0000
1779273340487238004,2026-05-20 16:05:40.485,-0.346478,2.940250,288.048203,0.041347,-0.003051,0.979108,0.362939,0.098402,9.680519,0.002495,0.010104,-0.020719,0.209105,-0.391182,-0.876969,98924.0000
1779273340587336004,2026-05-20 16:05:40.585,-0.348874,2.915953,288.119545,0.038586,-0.004361,0.978529,0.388545,0.005870,9.832575,-0.000973,0.019881,-0.015582,0.212689,-0.391169,-0.877361,98931.0000
1779273340686659337,2026-05-20 16:05:40.685,-0.350411,2.867909,288.174225,0.032526,-0.004059,0.977339,0.526483,0.146495,9.928013,-0.000036,0.003217,-0.008156,0.212373,-0.391198,-0.878252,98927.0000
1779273340786652356,2026-05-20 16:05:40.785,-0.343407,2.826647,288.230980,0.037088,-0.004533,0.979258,0.300809,-0.264179,9.651448,-0.003440,0.004577,-0.014941,0.213626,-0.389333,-0.875929,98930.0000
1779273340886860189,2026-05-20 16:05:40.885,-0.330759,2.836283,288.271950,0.036705,-0.005083,0.978318,0.369928,-0.237432,9.813301,0.006797,0.006966,-0.010794,0.213320,-0.389641,-0.876214,98930.0000
1779273340986700707,2026-05-20 16:05:40.985,-0.329560,2.836464,288.287323,0.030941,-0.004952,0.975588,0.587794,0.483699,10.007131,0.001395,-0.007318,-0.004050,0.213011,-0.389363,-0.876813,98927.0000
1779273341086724504,2026-05-20 16:05:41.085,-0.342055,2.809542,288.304306,0.034438,-0.004854,0.977053,0.254069,-0.125690,9.582293,0.005672,-0.002241,-0.004333,0.214214,-0.390231,-0.876223,98935.0000
1779273341187069152,2026-05-20 16:05:41.185,-0.346787,2.827394,288.310890,0.037246,-0.003634,0.978915,0.217525,-0.102682,9.699757,0.005927,0.011871,-0.003013,0.214202,-0.390249,-0.876822,98937.0000
1779273341287002652,2026-05-20 16:05:41.285,-0.355765,2.839633,288.274445,0.032147,-0.004064,0.977430,0.287186,-0.078014,9.724599,0.005525,-0.005008,0.009353,0.213013,-0.389950,-0.876499,98928.0000
1779273341386741763,2026-05-20 16:05:41.385,-0.360179,2.864344,288.221107,0.034286,-0.001503,0.977858,0.018391,0.069646,9.696802,0.008114,-0.000235,0.011191,0.213619,-0.388756,-0.876543,98926.0000
1779273341486544115,2026-05-20 16:05:41.484,-0.358369,2.881427,288.169594,0.034702,0.000203,0.977552,0.248080,0.087881,9.694286,-0.001572,-0.007619,0.006568,0.213053,-0.389887,-0.874402,98930.0000
1779273341586729800,2026-05-20 16:05:41.585,-0.349699,2.892174,288.136086,0.038192,-0.000140,0.978528,0.367360,0.424047,9.707355,-0.004840,-0.004464,-0.001417,0.213890,-0.390566,-0.877406,98929.0000
1779273341686540837,2026-05-20 16:05:41.685,-0.335974,2.918995,288.128212,0.040182,-0.002117,0.979231,0.248689,0.105125,9.674528,0.000082,0.015969,-0.003432,0.212398,-0.390864,-0.877061,98935.0000
1779273341786711207,2026-05-20 16:05:41.785,-0.335372,2.923349,288.131065,0.032356,-0.003998,0.976211,0.039895,-0.221688,9.817723,0.002661,-0.009811,-0.002643,0.212396,-0.390278,-0.877375,98933.0000
1779273341887841800,2026-05-20 16:05:41.886,-0.346455,2.900711,288.138008,0.038915,-0.002584,0.978493,0.314577,0.202326,9.762157,0.004903,-0.002878,-0.007180,0.212102,-0.392922,-0.876104,98933.0000
1779273341986937744,2026-05-20 16:05:41.985,-0.345025,2.891817,288.143768,0.041687,-0.003051,0.979792,0.491416,0.162307,9.622204,-0.005159,0.004370,-0.004305,0.213305,-0.390254,-0.876799,98928.0000
1779273342086618318,2026-05-20 16:05:42.085,-0.333405,2.879905,288.146187,0.035406,-0.002491,0.976187,0.450513,-0.123274,9.624029,-0.001658,-0.002114,-0.005434,0.212718,-0.390240,-0.876184,98933.0000
1779273342186154596,2026-05-20 16:05:42.184,-0.323399,2.852737,288.138168,0.032702,-0.003707,0.975929,0.290602,0.069218,9.786526,-0.003457,-0.000349,0.008558,0.212712,-0.389365,-0.876805,98934.0000
1779273342287171855,2026-05-20 16:05:42.285,-0.312793,2.850511,288.114113,0.035961,-0.002877,0.978941,0.143205,0.206027,9.891746,-0.004093,-0.001852,0.004220,0.214526,-0.389913,-0.875638,98921.0000
1779273342386856836,2026-05-20 16:05:42.385,-0.298271,2.870121,288.092010,0.035129,-0.004700,0.978510,0.216551,-0.028479,9.635376,-0.000458,-0.013534,0.000140,0.212729,-0.391106,-0.875264,98927.0000
1779273342486718614,2026-05-20 16:05:42.485,-0.307473,2.907161,288.050438,0.037333,-0.004914,0.978213,0.307758,-0.134161,9.617449,0.010814,-0.008810,0.008876,0.211792,-0.391174,-0.877338,98922.0000
1779273342587815355,2026-05-20 16:05:42.586,-0.324229,2.935272,288.011482,0.040605,-0.001042,0.978229,0.763969,0.317217,9.833970,-0.001963,-0.004886,-0.001184,0.212402,-0.388501,-0.877718,98926.0000
1779273342686917318,2026-05-20 16:05:42.685,-0.338098,2.917711,287.977142,0.039808,-0.003533,0.976491,0.340455,0.078045,9.750855,0.002560,0.002313,0.011169,0.211229,-0.390827,-0.875533,98922.0000
1779273342786836540,2026-05-20 16:05:42.785,-0.348902,2.905495,287.920471,0.040352,-0.001864,0.979161,0.222746,0.129320,9.798948,0.007071,0.012883,0.016149,0.210297,-0.392654,-0.876665,98933.0000
1779273342886766966,2026-05-20 16:05:42.885,-0.349108,2.876793,287.879105,0.037954,0.001136,0.979534,0.528658,-0.047669,9.943929,0.000571,0.013557,0.003806,0.209686,-0.391205,-0.877884,98929.0000
1779273342987156891,2026-05-20 16:05:42.985,-0.340245,2.857651,287.859489,0.031753,-0.000799,0.976652,0.165345,-0.321303,9.803969,-0.005866,-0.008959,0.004016,0.211522,-0.391717,-0.875519,98933.0000
1779273343086850706,2026-05-20 16:05:43.085,-0.328023,2.846042,287.834496,0.038113,-0.001903,0.978681,0.282119,0.088185,9.682320,0.001734,-0.004845,0.000816,0.211822,-0.390832,-0.875847,98929.0000
1779273343186524614,2026-05-20 16:05:43.185,-0.313829,2.859552,287.797798,0.037157,-0.001681,0.977528,0.670304,-0.102329,9.869123,-0.006696,-0.000057,-0.000519,0.211498,-0.391167,-0.877031,98931.0000
1779273343287922762,2026-05-20 16:05:43.286,-0.307053,2.880628,287.766655,0.033246,-0.003862,0.976943,0.264668,0.089171,9.774756,0.006202,-0.002991,0.006461,0.210608,-0.391750,-0.876394,98929.0000
1779273343387044113,2026-05-20 16:05:43.385,-0.302417,2.907050,287.766785,0.037711,-0.001498,0.977549,0.333928,-0.147023,9.713146,-0.004955,-0.004835,-0.004113,0.210615,-0.392327,-0.875781,98929.0000
1779273343486935299,2026-05-20 16:05:43.485,-0.303515,2.916764,287.772545,0.041065,-0.004151,0.979626,0.675885,-0.249554,9.751901,-0.003904,0.004234,-0.001888,0.210309,-0.391752,-0.876387,98933.0000
1779273343586955484,2026-05-20 16:05:43.585,-0.304793,2.914756,287.775040,0.038457,-0.003441,0.978349,0.998510,-0.031228,9.744098,0.006167,0.004417,-0.004890,0.211509,-0.391149,-0.876432,98935.0000
1779273343686621317,2026-05-20 16:05:43.684,-0.303698,2.877397,287.759193,0.036366,-0.005524,0.977392,0.090188,0.041083,9.832601,0.013729,0.003375,0.008042,0.210879,-0.392677,-0.877578,98934.0000
1779273343786849928,2026-05-20 16:05:43.785,-0.299226,2.825196,287.717682,0.039958,-0.002663,0.979235,0.420411,0.137771,9.930848,-0.000412,0.019365,0.006539,0.210919,-0.390846,-0.876124,98929.0000
1779273343887008835,2026-05-20 16:05:43.885,-0.302119,2.776779,287.661598,0.032400,-0.004122,0.977401,0.468799,-0.317796,10.027359,0.003780,-0.005232,0.010008,0.211206,-0.391746,-0.876410,98927.0000
1779273343987976187,2026-05-20 16:05:43.986,-0.304477,2.790932,287.615509,0.032028,-0.000364,0.976821,0.995359,0.101952,10.028436,-0.003002,-0.006390,-0.001298,0.209998,-0.392655,-0.876657,98930.0000
1779273344087434095,2026-05-20 16:05:44.085,-0.299768,2.853659,287.567520,0.033269,-0.004000,0.976576,0.066025,-0.216126,9.731640,0.005130,-0.019575,0.007213,0.209403,-0.393831,-0.876014,98941.0000
1779273344187037835,2026-05-20 16:05:44.185,-0.294219,2.913981,287.505989,0.042380,-0.001343,0.978764,0.655648,0.109632,9.721190,-0.002216,-0.008608,0.009670,0.210004,-0.391762,-0.876678,98927.0000
1779273344286492446,2026-05-20 16:05:44.285,-0.296769,2.948179,287.442970,0.040717,-0.002434,0.977891,0.686323,-0.427021,9.879339,0.007542,-0.002602,0.009672,0.208489,-0.392097,-0.877532,98927.0000
1779273344386605761,2026-05-20 16:05:44.385,-0.305354,2.942538,287.378860,0.038403,-0.001564,0.976846,0.483838,0.207823,9.808503,0.002748,-0.004772,0.011627,0.209103,-0.392363,-0.876641,98925.0000
1779273344486874224,2026-05-20 16:05:44.485,-0.311700,2.894476,287.312805,0.043080,-0.003300,0.979668,-0.098915,-0.175880,9.795859,0.001984,0.006418,0.010934,0.209407,-0.394120,-0.875707,98927.0000
1779273344586754761,2026-05-20 16:05:44.585,-0.316698,2.834566,287.242912,0.041607,-0.001096,0.980544,0.751058,-0.073779,9.923670,0.007457,0.027525,0.012096,0.208828,-0.392915,-0.875121,98931.0000
1779273344686604039,2026-05-20 16:05:44.685,-0.310767,2.755968,287.186012,0.031666,0.000102,0.976626,0.827304,0.169623,9.884683,-0.000848,0.005691,0.001083,0.208491,-0.392683,-0.877218,98922.0000
1779273344787127835,2026-05-20 16:05:44.785,-0.309503,2.684946,287.134323,0.030485,-0.000657,0.976633,0.325442,0.030868,9.681902,-0.006885,0.001016,-0.001675,0.207315,-0.394719,-0.875340,98933.0000
1779273344886973538,2026-05-20 16:05:44.885,-0.305037,2.665061,287.088142,0.033409,-0.002218,0.978868,-0.386584,-0.150839,9.504169,0.000816,0.005776,0.001759,0.209132,-0.394672,-0.874187,98928.0000
1779273344986796742,2026-05-20 16:05:44.985,-0.300640,2.702649,287.044685,0.030045,-0.002986,0.977263,0.609532,0.017267,10.091215,0.004716,-0.007822,0.008438,0.208210,-0.394127,-0.875676,98920.0000
1779273345087962298,2026-05-20 16:05:45.086,-0.296914,2.759187,287.021904,0.031998,-0.001490,0.976770,0.531937,0.004266,9.878410,0.002467,-0.014265,0.004715,0.207597,-0.393860,-0.876567,98934.0000
1779273345186867594,2026-05-20 16:05:45.185,-0.295565,2.813272,287.020927,0.035794,-0.001663,0.978506,0.302663,-0.241561,9.825480,0.000017,-0.008086,-0.003130,0.206391,-0.393588,-0.877142,98933.0000
1779273345286838520,2026-05-20 16:05:45.285,-0.297654,2.837909,287.023895,0.039818,-0.003924,0.977804,0.458330,-0.140185,9.837518,0.006425,0.001829,0.000805,0.206124,-0.393834,-0.875331,98930.0000
1779273345386645816,2026-05-20 16:05:45.385,-0.293850,2.844538,287.036148,0.041315,-0.003465,0.978439,0.704547,-0.101070,9.866127,0.003679,0.010782,-0.005560,0.206995,-0.393575,-0.876858,98930.0000
1779273345486364334,2026-05-20 16:05:45.484,-0.291837,2.834148,287.048058,0.034653,-0.002708,0.977152,0.201311,0.068442,9.646032,0.001875,-0.002864,-0.008040,0.207612,-0.392363,-0.876303,98926.0000
1779273345586982871,2026-05-20 16:05:45.585,-0.292829,2.800845,287.065598,0.038140,-0.003302,0.978610,0.129561,-0.147635,9.460968,0.002636,0.001948,-0.004936,0.206711,-0.392080,-0.876587,98932.0000
1779273345687094297,2026-05-20 16:05:45.685,-0.286813,2.807280,287.078514,0.038067,-0.003584,0.979596,0.643347,-0.272754,9.925430,-0.002564,0.000296,-0.003487,0.207913,-0.392948,-0.875997,98919.0000
1779273345786742871,2026-05-20 16:05:45.785,-0.284335,2.815995,287.095398,0.033628,-0.002660,0.977955,0.529560,0.140112,9.883467,0.000518,-0.010446,-0.007147,0.208205,-0.392369,-0.876618,98926.0000
1779273345887154279,2026-05-20 16:05:45.885,-0.282302,2.854553,287.103920,0.037148,-0.005708,0.976630,0.003192,-0.124224,9.505055,0.001220,-0.008736,0.004497,0.206689,-0.392116,-0.877785,98927.0000
1779273345986886334,2026-05-20 16:05:45.985,-0.290010,2.899076,287.098137,0.039489,-0.003338,0.977136,0.259055,0.165707,9.721959,0.006052,-0.000749,-0.000585,0.206383,-0.393895,-0.877435,98938.0000
1779273346086692519,2026-05-20 16:05:46.085,-0.297957,2.908608,287.088470,0.041376,-0.001816,0.978254,0.839979,-0.066549,9.951735,0.001804,0.001372,0.004713,0.206707,-0.392676,-0.876573,98932.0000
1779273346187808093,2026-05-20 16:05:46.186,-0.302540,2.890176,287.085472,0.038064,-0.004308,0.977665,0.268184,-0.389822,9.761781,0.007922,-0.000172,0.006773,0.207294,-0.393574,-0.876866,98933.0000
1779273346287082204,2026-05-20 16:05:46.285,-0.300225,2.886139,287.080620,0.038660,-0.001571,0.978715,-0.081724,0.057593,9.631134,0.004983,0.004365,-0.000806,0.206389,-0.394770,-0.876814,98924.0000
1779273346386882167,2026-05-20 16:05:46.385,-0.292750,2.853199,287.090218,0.040729,-0.001185,0.979380,0.949122,0.095002,9.820615,-0.004012,0.010522,-0.005850,0.206391,-0.394472,-0.876821,98934.0000
1779273346486739000,2026-05-20 16:05:46.485,-0.283386,2.839948,287.102196,0.033985,-0.004989,0.976437,0.320856,-0.076101,9.800899,0.001905,-0.007059,0.001386,0.206705,-0.392973,-0.876566,98928.0000
1779273346586261019,2026-05-20 16:05:46.584,-0.279880,2.842639,287.113174,0.037398,-0.003832,0.978671,-0.096365,-0.015181,9.506666,-0.000644,-0.005154,-0.002749,0.207898,-0.392677,-0.876903,98927.0000
1779273346686975889,2026-05-20 16:05:46.685,-0.282471,2.860485,287.127518,0.040045,-0.005147,0.977948,0.405114,-0.394817,9.648730,0.002337,-0.001013,-0.005757,0.208751,-0.394511,-0.878680,98929.0000
1779273346786747408,2026-05-20 16:05:46.785,-0.297657,2.876411,287.141609,0.034155,-0.004105,0.976921,0.764240,-0.051344,9.872162,0.004552,-0.015804,-0.003099,0.206699,-0.395633,-0.875902,98928.0000
1779273346886434648,2026-05-20 16:05:46.885,-0.309945,2.873072,287.149406,0.041889,-0.004095,0.978521,-0.135023,-0.306434,9.543927,0.002601,-0.005650,0.000384,0.207895,-0.392389,-0.877210,98929.0000
1779273346986990667,2026-05-20 16:05:46.985,-0.315553,2.879142,287.134064,0.042077,-0.002991,0.978637,0.259179,0.163623,9.685675,0.003199,0.012612,0.000809,0.207306,-0.392672,-0.876588,98932.0000
1779273347087091389,2026-05-20 16:05:47.085,-0.315075,2.841734,287.114883,0.037894,-0.000758,0.978294,0.837079,0.296091,9.948165,-0.000430,0.008169,-0.001209,0.206393,-0.393291,-0.877150,98932.0000
1779273347186655000,2026-05-20 16:05:47.185,-0.307746,2.763322,287.112778,0.034554,-0.003722,0.976311,0.166840,-0.206525,9.751410,-0.002642,0.006790,0.008085,0.208493,-0.391501,-0.877546,98923.0000
1779273347286772222,2026-05-20 16:05:47.285,-0.296638,2.724379,287.109352,0.037177,-0.003074,0.979170,0.174426,0.111197,9.699941,-0.000354,0.007601,0.001154,0.208216,-0.393235,-0.875698,98934.0000
1779273347387107370,2026-05-20 16:05:47.385,-0.288605,2.742196,287.113968,0.032942,-0.002397,0.977083,0.226886,-0.036361,9.901678,0.002907,-0.008759,-0.008402,0.207896,-0.393859,-0.876575,98928.0000
1779273347486814130,2026-05-20 16:05:47.485,-0.289842,2.788628,287.145332,0.030758,-0.005107,0.975666,0.384561,0.105887,9.786688,0.006455,-0.020875,-0.005500,0.207343,-0.392906,-0.874484,98933.0000
1779273347586649796,2026-05-20 16:05:47.585,-0.296975,2.830944,287.191345,0.043145,-0.004152,0.980217,0.467744,-0.128900,9.728879,0.001263,-0.002522,-0.009609,0.208209,-0.392657,-0.876311,98934.0000
1779273347690401907,2026-05-20 16:05:47.689,-0.304005,2.858366,287.221931,0.041673,-0.004870,0.978997,0.253242,-0.224076,9.777951,0.011152,0.011438,-0.000695,0.208800,-0.392960,-0.876619,98932.0000
1779273347786991129,2026-05-20 16:05:47.785,-0.307154,2.849518,287.249626,0.037705,-0.001453,0.976630,0.771437,-0.105987,9.958698,-0.003254,-0.005310,-0.008128,0.207629,-0.392336,-0.875405,98926.0000
1779273347886865333,2026-05-20 16:05:47.885,-0.311554,2.804670,287.270447,0.037398,-0.004255,0.977470,0.089704,0.095779,9.620286,0.004147,-0.000358,-0.000117,0.209098,-0.391488,-0.877262,98937.0000
1779273347988037463,2026-05-20 16:05:47.986,-0.301678,2.768776,287.275322,0.042620,-0.002946,0.980154,0.499416,0.041067,9.848820,-0.005476,0.014630,-0.005361,0.208849,-0.391409,-0.874558,98929.0000
1779273348086919333,2026-05-20 16:05:48.085,-0.291547,2.754551,287.270538,0.035477,-0.003791,0.977287,0.775696,-0.039965,9.913075,0.000332,0.010293,0.006087,0.208215,-0.390881,-0.876654,98933.0000
1779273348186933481,2026-05-20 16:05:48.185,-0.287586,2.744724,287.262665,0.029272,-0.001871,0.975611,0.563216,0.143752,9.853361,-0.003212,-0.008111,0.002567,0.209693,-0.392666,-0.876949,98935.0000
1779273348286620722,2026-05-20 16:05:48.285,-0.288976,2.739372,287.256729,0.034498,-0.004529,0.977642,-0.254104,-0.469393,9.606028,0.001581,-0.005280,0.002282,0.209403,-0.393831,-0.876014,98933.0000
1779273348386444851,2026-05-20 16:05:48.384,-0.300318,2.751523,287.253517,0.040247,-0.001985,0.980955,0.431310,0.133808,9.791113,0.001005,0.004169,-0.000900,0.207306,-0.392672,-0.876588,98932.0000
1779273348486913147,2026-05-20 16:05:48.485,-0.308221,2.776953,287.251732,0.034726,-0.002691,0.978408,0.887316,-0.156536,10.170545,0.006205,0.001214,-0.003274,0.208523,-0.392926,-0.875413,98927.0000
1779273348586823610,2026-05-20 16:05:48.585,-0.319144,2.795000,287.244202,0.032702,-0.002303,0.976267,0.440362,0.309095,9.870905,0.000425,-0.016215,0.002123,0.209080,-0.393283,-0.877518,98928.0000
1779273348686700055,2026-05-20 16:05:48.685,-0.323059,2.803430,287.234535,0.040906,-0.002322,0.978559,-0.333900,-0.096645,9.496768,-0.001908,-0.002002,0.004130,0.208220,-0.393523,-0.875391,98934.0000
1779273348787101981,2026-05-20 16:05:48.785,-0.309662,2.799443,287.227814,0.042437,-0.001471,0.979988,0.493572,-0.089912,9.972360,0.004876,0.011459,0.003461,0.209409,-0.392939,-0.876036,98929.0000
1779273348886948795,2026-05-20 16:05:48.885,-0.282197,2.777816,287.226326,0.037872,-0.000738,0.976775,0.955527,0.125444,9.961607,-0.011337,0.003507,-0.004843,0.207912,-0.392362,-0.876311,98929.0000
1779273348986823462,2026-05-20 16:05:48.985,-0.263258,2.740867,287.217522,0.034099,-0.006319,0.975929,0.289828,0.047158,9.830175,0.001117,-0.001611,0.004214,0.207887,-0.391811,-0.877823,98926.0000
1779273349088076999,2026-05-20 16:05:49.086,-0.264231,2.712746,287.202560,0.037010,-0.004274,0.979014,-0.123857,0.039273,9.595784,0.002154,0.005178,-0.001434,0.209137,-0.391426,-0.875165,98927.0000
1779273349187021869,2026-05-20 16:05:49.185,-0.279248,2.707137,287.182915,0.036398,-0.005417,0.978812,0.164786,-0.087215,9.770222,0.003871,0.009537,0.005173,0.208200,-0.393262,-0.876597,98933.0000
1779273349286848110,2026-05-20 16:05:49.285,-0.292456,2.736945,287.161552,0.032998,-0.001697,0.977716,1.002945,0.005649,9.851171,0.005737,-0.004471,0.002013,0.208487,-0.394162,-0.876882,98927.0000
1779273349386709184,2026-05-20 16:05:49.385,-0.299932,2.767199,287.132935,0.032775,-0.002972,0.976080,0.068162,-0.044009,9.670154,0.000159,-0.011274,0.012309,0.208190,-0.392982,-0.877203,98923.0000
1779273349486986517,2026-05-20 16:05:49.485,-0.292098,2.781392,287.097343,0.040807,-0.000577,0.978926,0.514141,0.184699,9.883164,-0.002129,-0.001868,0.001234,0.208482,-0.392403,-0.877824,98931.0000
1779273349586852999,2026-05-20 16:05:49.585,-0.283865,2.786139,287.054703,0.041734,-0.003778,0.978422,0.129214,-0.142419,9.709038,-0.001096,0.010580,0.005026,0.207296,-0.393276,-0.876873,98923.0000
1779273349686772906,2026-05-20 16:05:49.685,-0.280539,2.788402,287.024292,0.035108,-0.001057,0.976872,0.660032,0.306666,9.748199,0.005170,-0.003170,0.002328,0.208510,-0.393242,-0.876005,98927.0000
1779273349787991017,2026-05-20 16:05:49.786,-0.288763,2.772759,287.011284,0.034340,-0.004050,0.977075,0.113251,-0.068777,9.604123,0.007632,-0.003867,0.006153,0.208525,-0.392629,-0.875420,98931.0000
1779273349887162258,2026-05-20 16:05:49.885,-0.296126,2.760386,287.014381,0.042006,-0.000917,0.979394,0.581479,-0.070184,9.749703,-0.000351,0.004153,-0.007031,0.207921,-0.392641,-0.875705,98937.0000
1779273349986678128,2026-05-20 16:05:49.985,-0.292730,2.765332,287.013779,0.039894,-0.003536,0.978785,0.821550,-0.171828,10.100911,0.004845,0.010227,-0.000911,0.208207,-0.392955,-0.876304,98937.0000
1779273350086777961,2026-05-20 16:05:50.085,-0.281262,2.760201,286.993828,0.033854,-0.000466,0.977211,0.907070,0.213548,9.995010,-0.006921,-0.005832,0.005033,0.207010,-0.392962,-0.876274,98927.0000
1779273350187981665,2026-05-20 16:05:50.186,-0.272346,2.707170,286.952179,0.033697,-0.004078,0.977826,0.001658,0.037616,9.618971,-0.001439,-0.002211,0.014515,0.207294,-0.394457,-0.876545,98925.0000
1779273350287079683,2026-05-20 16:05:50.285,-0.261041,2.686266,286.916878,0.041487,-0.001068,0.979681,0.323258,0.043667,9.810709,0.003255,0.014301,-0.000530,0.208201,-0.392964,-0.876604,98926.0000
1779273350386916850,2026-05-20 16:05:50.385,-0.257490,2.713133,286.890923,0.031088,-0.002677,0.976587,0.379363,0.127434,9.937735,0.006229,-0.002062,0.002186,0.206686,-0.394182,-0.877136,98921.0000
1779273350486679776,2026-05-20 16:05:50.485,-0.265750,2.731801,286.859375,0.031393,-0.001605,0.975485,0.125921,0.080621,9.656613,-0.005633,-0.023847,0.001679,0.208207,-0.392955,-0.876304,98923.0000
1779273350587054128,2026-05-20 16:05:50.585,-0.267057,2.761890,286.817352,0.040938,-0.003890,0.978771,-0.062392,0.125132,9.456343,0.008965,-0.003328,0.012084,0.206395,-0.394761,-0.876515,98925.0000
1779273350686842702,2026-05-20 16:05:50.685,-0.255621,2.788296,286.785652,0.042902,-0.000839,0.978444,0.386691,-0.127053,9.614365,-0.001641,0.001869,0.003866,0.206669,-0.395092,-0.877713,98930.0000
1779273350786737609,2026-05-20 16:05:50.785,-0.243796,2.772437,286.758522,0.036515,-0.002330,0.977003,0.429930,0.123602,9.968637,0.005144,0.000845,0.003937,0.206688,-0.394768,-0.876822,98933.0000
1779273350887974090,2026-05-20 16:05:50.886,-0.235707,2.746879,286.737106,0.038892,-0.003773,0.978299,0.240803,0.098699,9.756768,-0.000183,0.000268,0.006226,0.207317,-0.392654,-0.875989,98931.0000
1779273350987117424,2026-05-20 16:05:50.985,-0.238552,2.727460,286.704262,0.035030,-0.005811,0.979039,-0.115591,0.351652,9.522358,0.012743,-0.001471,0.009369,0.207021,-0.392944,-0.875675,98927.0000
1779273351086936016,2026-05-20 16:05:51.085,-0.245716,2.718094,286.655334,0.038536,-0.002620,0.978547,0.304878,-0.055407,9.563388,0.002168,0.001076,0.006940,0.204903,-0.394175,-0.876491,98929.0000
1779273351186795942,2026-05-20 16:05:51.185,-0.256719,2.710457,286.593590,0.035768,-0.001439,0.977877,0.520645,-0.058061,9.887311,0.000864,-0.002276,0.006931,0.204895,-0.394481,-0.876783,98932.0000
1779273351287041646,2026-05-20 16:05:51.285,-0.255832,2.709800,286.521332,0.039592,-0.000867,0.977149,0.603175,0.219945,9.775455,-0.002433,0.004926,0.009337,0.205209,-0.394750,-0.875885,98931.0000
1779273351386859553,2026-05-20 16:05:51.385,-0.250098,2.716501,286.434555,0.035319,-0.004364,0.976301,-0.335687,-0.128184,9.578748,0.001236,-0.005062,0.022787,0.204889,-0.396258,-0.876441,98927.0000
1779273351486941183,2026-05-20 16:05:51.485,-0.245317,2.682376,286.342522,0.038686,-0.000382,0.978453,0.031488,0.171158,9.460482,0.003850,0.006745,0.015980,0.204277,-0.397461,-0.876696,98929.0000
1779273351586894127,2026-05-20 16:05:51.585,-0.243696,2.636207,286.257423,0.036768,-0.000191,0.979242,0.882094,0.144200,9.698326,-0.003347,0.006381,0.011870,0.204599,-0.396539,-0.875827,98927.0000
1779273351687203257,2026-05-20 16:05:51.685,-0.236412,2.608542,286.177467,0.032820,-0.002820,0.978452,0.450234,-0.373454,9.781631,-0.002473,0.007110,0.013596,0.203393,-0.397151,-0.876081,98929.0000
1779273351786709757,2026-05-20 16:05:51.785,-0.242377,2.603119,286.098877,0.028748,-0.001897,0.978097,0.190447,-0.255092,9.758798,0.004149,-0.000291,0.011828,0.204006,-0.397418,-0.875191,98923.0000
1779273351886780034,2026-05-20 16:05:51.885,-0.255105,2.619984,286.024094,0.032266,0.000662,0.977719,0.408648,0.235432,9.725019,0.000346,-0.012070,0.008669,0.202804,-0.398318,-0.875139,98926.0000
1779273351987898127,2026-05-20 16:05:51.986,-0.263914,2.655068,285.970764,0.039180,-0.000044,0.978710,-0.014699,0.183309,9.434485,0.002630,0.000035,0.000603,0.202207,-0.398024,-0.875130,98929.0000
1779273352087123701,2026-05-20 16:05:52.085,-0.257129,2.707857,285.931000,0.035719,-0.000825,0.977286,0.368146,-0.072527,9.789558,0.007057,-0.008103,0.008450,0.201270,-0.398976,-0.876883,98929.0000
1779273352186774386,2026-05-20 16:05:52.185,-0.241032,2.750811,285.903870,0.036789,0.000173,0.976281,0.910904,0.261425,9.946295,-0.003860,-0.009994,0.007195,0.200418,-0.398909,-0.874464,98924.0000
1779273352286727312,2026-05-20 16:05:52.285,-0.228297,2.745989,285.893013,0.040830,-0.005114,0.977213,-0.326307,-0.178111,9.606150,-0.000613,-0.003946,0.007903,0.201915,-0.399487,-0.874188,98938.0000
1779273352387188423,2026-05-20 16:05:52.385,-0.219119,2.752423,285.889709,0.043370,-0.002574,0.979042,0.555864,-0.113087,9.764673,0.006105,0.010366,-0.000093,0.201583,-0.398659,-0.876299,98938.0000
1779273352487225034,2026-05-20 16:05:52.485,-0.214014,2.754068,285.897911,0.038007,-0.003216,0.977597,0.685874,-0.362791,9.940056,0.003551,-0.000274,-0.003935,0.200408,-0.397746,-0.875391,98926.0000
1779273352586944108,2026-05-20 16:05:52.585,-0.224512,2.741533,285.911148,0.031426,-0.003889,0.976390,0.030213,0.260694,9.681779,-0.002234,-0.020948,-0.002340,0.200394,-0.397476,-0.876297,98924.0000
1779273352686952997,2026-05-20 16:05:52.685,-0.232211,2.731653,285.930939,0.044708,-0.003148,0.980567,0.154377,-0.078625,9.499942,-0.001022,0.004942,-0.005779,0.201605,-0.397739,-0.875422,98929.0000
1779273352786971997,2026-05-20 16:05:52.785,-0.230297,2.726637,285.934341,0.042525,-0.003570,0.980416,0.578028,-0.167169,9.826647,0.003066,0.017305,0.001487,0.200080,-0.398091,-0.876874,98931.0000
1779273352886777645,2026-05-20 16:05:52.885,-0.218519,2.715296,285.938728,0.033699,-0.001022,0.976079,0.897891,-0.064473,9.895732,-0.008121,-0.001111,-0.004493,0.201916,-0.398603,-0.874509,98926.0000
1779273352986740885,2026-05-20 16:05:52.985,-0.210171,2.655599,285.945679,0.034509,-0.004931,0.974812,-0.112992,-0.239275,9.467024,-0.004041,-0.009742,0.004190,0.201558,-0.398109,-0.877811,98933.0000
1779273353086516478,2026-05-20 16:05:53.085,-0.205942,2.639615,285.959259,0.039485,-0.003034,0.979373,-0.034844,0.205854,9.569631,0.004826,0.004029,-0.006870,0.203395,-0.396853,-0.876088,98930.0000
1779273353186768830,2026-05-20 16:05:53.185,-0.207607,2.670351,285.969170,0.034475,-0.004254,0.978220,0.685837,0.024463,10.044022,0.001696,0.004227,-0.008312,0.203374,-0.396591,-0.877294,98933.0000
1779273353286752682,2026-05-20 16:05:53.285,-0.219483,2.665648,285.989799,0.030217,-0.005564,0.976876,0.228421,0.073763,9.877718,0.001098,-0.015760,0.004179,0.203105,-0.396251,-0.875795,98931.0000
1779273353386709404,2026-05-20 16:05:53.385,-0.227797,2.651253,286.002266,0.039430,-0.002917,0.979745,-0.277670,0.083256,9.447018,0.008366,0.003170,0.000494,0.203088,-0.396278,-0.876694,98929.0000
1779273353486674219,2026-05-20 16:05:53.485,-0.221589,2.643760,286.016937,0.039313,-0.001730,0.979224,0.920793,-0.155849,9.860159,-0.002368,0.014561,-0.008971,0.203060,-0.397207,-0.877871,98925.0000
1779273353587025867,2026-05-20 16:05:53.585,-0.207747,2.614925,286.034790,0.035222,-0.005464,0.976382,0.658403,-0.442266,9.829705,-0.006410,0.002224,0.000370,0.202189,-0.397465,-0.876343,98932.0000
1779273353686983867,2026-05-20 16:05:53.685,-0.208978,2.591375,286.045624,0.031269,-0.003917,0.975853,-0.024278,-0.002206,9.627890,0.007210,-0.004581,0.001296,0.201015,-0.395668,-0.875757,98934.0000
1779273353786388644,2026-05-20 16:05:53.785,-0.218866,2.581222,286.048492,0.035329,-0.002098,0.977575,0.205971,0.277714,9.551250,-0.002020,-0.008997,-0.006005,0.203385,-0.396573,-0.876695,98926.0000
1779273353886948607,2026-05-20 16:05:53.885,-0.230205,2.588010,286.056602,0.036990,-0.003566,0.978932,0.200943,-0.209036,9.584425,0.001619,0.006744,-0.004598,0.202505,-0.396552,-0.875773,98924.0000
1779273353986992737,2026-05-20 16:05:53.985,-0.230667,2.621088,286.057770,0.034490,-0.002615,0.977708,0.229592,-0.341572,9.571727,-0.002900,-0.002320,0.001933,0.202518,-0.395353,-0.875502,98928.0000
1779273354086759644,2026-05-20 16:05:54.085,-0.219196,2.625013,286.056969,0.032574,-0.002388,0.977609,0.562627,-0.289818,9.846154,-0.004614,-0.005823,0.008855,0.202486,-0.396877,-0.876664,98938.0000
1779273354187034311,2026-05-20 16:05:54.185,-0.206592,2.622316,286.056969,0.037753,-0.002784,0.978883,-0.048841,0.068184,9.559252,0.000297,-0.010322,-0.000445,0.204296,-0.396252,-0.876126,98933.0000
1779273354286978737,2026-05-20 16:05:54.285,-0.198996,2.652062,286.067513,0.038663,-0.002262,0.977841,0.515644,0.267202,9.729547,-0.003796,-0.002076,-0.009791,0.204303,-0.396830,-0.875512,98928.0000
1779273354386923829,2026-05-20 16:05:54.385,-0.201107,2.678111,286.092659,0.035351,-0.004410,0.976771,0.519747,-0.141141,9.594114,-0.005246,-0.005947,-0.011514,0.203658,-0.397203,-0.877886,98937.0000
1779273354486982514,2026-05-20 16:05:54.485,-0.211542,2.667696,286.106438,0.039691,-0.005325,0.977435,-0.296990,-0.377206,9.379759,0.001452,-0.000688,-0.000571,0.203700,-0.396842,-0.875796,98930.0000
1779273354587259810,2026-05-20 16:05:54.586,-0.220790,2.652407,286.103951,0.040024,-0.004802,0.978675,0.622939,-0.177622,9.803400,0.005646,0.004990,0.004089,0.204290,-0.397145,-0.876104,98934.0000
1779273354687263866,2026-05-20 16:05:54.685,-0.218235,2.631117,286.093201,0.038159,-0.002601,0.978812,0.000351,-0.123445,9.625921,0.001907,0.013496,0.000338,0.203707,-0.396536,-0.875504,98926.0000
1779273354786645199,2026-05-20 16:05:54.785,-0.215106,2.615988,286.092163,0.033226,-0.000502,0.977025,0.576374,0.113130,9.768217,-0.003441,-0.010873,-0.003829,0.202800,-0.397145,-0.875766,98938.0000
1779273354886355477,2026-05-20 16:05:54.885,-0.221170,2.582064,286.108116,0.034213,-0.003211,0.976927,0.411339,0.153147,9.759825,-0.005304,-0.012789,-0.008733,0.205510,-0.395334,-0.875579,98921.0000
1779273354986932014,2026-05-20 16:05:54.985,-0.224884,2.601491,286.125694,0.039478,-0.003678,0.979601,0.214242,-0.146080,9.667597,0.007250,0.004957,-0.004570,0.202214,-0.395363,-0.875794,98931.0000
1779273355086853866,2026-05-20 16:05:55.085,-0.225959,2.627698,286.139511,0.031275,-0.003368,0.976826,0.527234,-0.070290,9.950267,0.001815,-0.004714,-0.004447,0.203698,-0.397140,-0.875789,98928.0000
1779273355188016273,2026-05-20 16:05:55.186,-0.231249,2.622715,286.158073,0.036237,-0.002659,0.978042,0.471889,-0.171618,9.891627,0.002447,-0.000955,0.003091,0.202785,-0.396875,-0.876672,98931.0000
1779273355287178736,2026-05-20 16:05:55.285,-0.226473,2.637141,286.192360,0.040908,-0.001582,0.979559,0.476267,0.054687,9.988411,0.002994,0.000635,-0.013795,0.203991,-0.397147,-0.876096,98933.0000
1779273355387055051,2026-05-20 16:05:55.385,-0.215436,2.657828,286.238152,0.037765,-0.002595,0.977765,0.615744,0.079299,10.001142,-0.004820,-0.004878,-0.013170,0.204886,-0.395085,-0.877068,98933.0000
1779273355486891551,2026-05-20 16:05:55.485,-0.200609,2.654221,286.281265,0.037361,-0.003629,0.977550,0.459920,-0.075979,9.967211,-0.003979,0.003142,-0.012671,0.203683,-0.395985,-0.877016,98936.0000
1779273355586810162,2026-05-20 16:05:55.585,-0.202711,2.611928,286.311874,0.034070,-0.005366,0.976841,0.353406,-0.004292,9.951444,0.002299,-0.006971,-0.004539,0.204903,-0.394175,-0.876491,98929.0000
1779273355686950884,2026-05-20 16:05:55.685,-0.202509,2.572320,286.339821,0.039774,-0.003860,0.979485,-0.053817,0.110571,9.699382,0.006139,0.007771,-0.004364,0.205812,-0.393267,-0.876236,98933.0000
1779273355786795125,2026-05-20 16:05:55.785,-0.198441,2.585759,286.371925,0.035743,-0.002624,0.978500,0.637029,0.094693,9.992418,0.000323,0.006090,-0.003821,0.205208,-0.394164,-0.876199,98933.0000
1779273355888079162,2026-05-20 16:05:55.886,-0.201752,2.597455,286.398476,0.031749,-0.004177,0.975297,0.297412,-0.189538,9.724570,-0.003726,-0.011649,-0.001544,0.207002,-0.394153,-0.876245,98940.0000
1779273355987171532,2026-05-20 16:05:55.985,-0.207362,2.606868,286.427658,0.037934,-0.003307,0.977510,0.302837,-0.072345,9.868760,-0.003449,-0.009079,-0.001614,0.205471,-0.394513,-0.877997,98929.0000
1779273356087143421,2026-05-20 16:05:56.085,-0.204882,2.642243,286.463249,0.040961,-0.003230,0.979040,0.260470,0.370877,9.814445,0.002793,-0.003353,-0.004341,0.207290,-0.394169,-0.876852,98936.0000
1779273356186725310,2026-05-20 16:05:56.185,-0.199482,2.649697,286.495148,0.036226,-0.002830,0.977544,0.563317,0.210917,9.920971,0.005688,0.006127,-0.004424,0.205804,-0.394458,-0.876207,98925.0000
1779273356286559050,2026-05-20 16:05:56.285,-0.203081,2.613542,286.535408,0.035232,-0.003188,0.977624,0.111923,-0.022052,9.752042,-0.000888,-0.004451,-0.008743,0.205810,-0.393565,-0.876229,98936.0000
1779273356387070772,2026-05-20 16:05:56.385,-0.205624,2.584901,286.570312,0.036943,-0.005322,0.980006,0.003844,0.024811,9.770104,0.003561,0.001158,-0.001014,0.207014,-0.394135,-0.875646,98929.0000
1779273356486897995,2026-05-20 16:05:56.485,-0.196739,2.605370,286.611908,0.037510,-0.003242,0.978656,0.264184,-0.001437,9.839267,0.005390,-0.000281,-0.007319,0.207313,-0.392365,-0.876296,98935.0000
1779273356586750513,2026-05-20 16:05:56.585,-0.190677,2.612815,286.656197,0.034242,-0.001126,0.976271,0.649597,0.281763,9.791162,-0.007480,-0.012427,-0.016157,0.207307,-0.393258,-0.876274,98929.0000
1779273356688105735,2026-05-20 16:05:56.686,-0.187220,2.607605,286.714523,0.037599,-0.003946,0.976637,0.274183,0.077479,9.707982,-0.006680,-0.009383,-0.015908,0.207313,-0.392365,-0.876296,98934.0000
1779273356787157568,2026-05-20 16:05:56.785,-0.185611,2.602898,286.774757,0.040007,-0.005126,0.977958,0.345275,-0.068310,9.758379,0.002246,-0.000755,-0.010237,0.207317,-0.392654,-0.875989,98936.0000
1779273356886951161,2026-05-20 16:05:56.885,-0.186445,2.654208,286.827354,0.037170,-0.002889,0.977494,1.008406,0.093209,9.960196,0.000087,-0.000104,-0.015197,0.207915,-0.392650,-0.876004,98930.0000
1779273356986785068,2026-05-20 16:05:56.985,-0.193341,2.691320,286.876518,0.034535,-0.005170,0.976122,0.150034,-0.219996,9.682028,-0.000339,-0.012621,-0.002468,0.208811,-0.392942,-0.876020,98925.0000
1779273357087388865,2026-05-20 16:05:57.086,-0.200257,2.700530,286.924820,0.042131,-0.002187,0.979845,0.275010,0.213569,9.765634,0.001575,-0.005746,-0.007969,0.207920,-0.391171,-0.876340,98930.0000
1779273357187034698,2026-05-20 16:05:57.185,-0.192909,2.714080,286.964157,0.044042,-0.003218,0.979762,0.512756,-0.174879,10.001519,0.000887,0.015986,-0.009981,0.210290,-0.392076,-0.877278,98925.0000
1779273357287184661,2026-05-20 16:05:57.285,-0.182316,2.685033,286.996468,0.037495,-0.004046,0.976465,0.369448,0.365034,9.874615,0.002644,0.007759,0.000985,0.209099,-0.392075,-0.876948,98929.0000
1779273357387009550,2026-05-20 16:05:57.385,-0.171681,2.612527,287.026009,0.038373,-0.002446,0.978440,0.046601,0.189155,9.760484,-0.001114,0.002886,-0.006325,0.209414,-0.390576,-0.876692,98927.0000
1779273357487090975,2026-05-20 16:05:57.485,-0.157380,2.546446,287.032326,0.034934,-0.005270,0.978312,0.332368,-0.473675,9.696817,0.000067,0.010265,0.002592,0.209743,-0.390231,-0.875209,98938.0000
1779273357586977568,2026-05-20 16:05:57.585,-0.145987,2.522124,287.019630,0.032584,-0.004803,0.978614,0.495998,-0.071467,9.952180,0.009566,0.010416,0.006003,0.211218,-0.390845,-0.876132,98925.0000
1779273357686901698,2026-05-20 16:05:57.685,-0.149562,2.541713,287.007446,0.031672,-0.002793,0.976814,0.543556,-0.069463,9.744285,0.005878,-0.006364,0.001685,0.210920,-0.391433,-0.875810,98925.0000
1779273357787401753,2026-05-20 16:05:57.786,-0.166608,2.573900,286.993164,0.037497,-0.002963,0.978162,0.551480,-0.253378,9.789361,0.002670,0.000246,0.000350,0.210003,-0.389409,-0.877635,98934.0000
1779273357887294160,2026-05-20 16:05:57.885,-0.184808,2.613034,286.983589,0.033720,-0.002624,0.975844,0.379268,0.020219,9.841619,0.003649,-0.013128,0.002843,0.209123,-0.391741,-0.875757,98923.0000
1779273357987174308,2026-05-20 16:05:57.985,-0.199998,2.623813,286.977112,0.042029,-0.001754,0.979256,0.353096,-0.034283,9.687725,0.005143,0.010213,-0.000842,0.209422,-0.391739,-0.875765,98936.0000
1779273358086960568,2026-05-20 16:05:58.085,-0.201134,2.619287,286.972961,0.038498,0.000801,0.978821,0.700890,0.114333,9.744289,-0.000388,-0.000568,-0.004620,0.210311,-0.390570,-0.876715,98933.0000
1779273358187461919,2026-05-20 16:05:58.186,-0.188336,2.586196,286.994713,0.035058,-0.001575,0.977008,0.463081,-0.151278,9.809221,-0.004509,-0.004535,-0.000846,0.210608,-0.390866,-0.876715,98935.0000
1779273358286860493,2026-05-20 16:05:58.285,-0.172018,2.582279,287.016098,0.037242,-0.002394,0.978590,-0.058942,-0.062041,9.604699,0.000901,-0.005568,-0.007296,0.211199,-0.391169,-0.877023,98932.0000
1779273358386726179,2026-05-20 16:05:58.385,-0.158663,2.609697,287.039474,0.039626,-0.002412,0.977425,0.706488,-0.058936,9.742955,-0.003658,-0.001018,-0.013470,0.209718,-0.390565,-0.876400,98928.0000
1779273358486514049,2026-05-20 16:05:58.485,-0.156753,2.645438,287.060860,0.036002,-0.005751,0.976329,0.091643,-0.080688,9.591264,0.006693,-0.004837,-0.000410,0.209423,-0.390856,-0.876086,98929.0000
1779273358586927993,2026-05-20 16:05:58.585,-0.166351,2.647491,287.074577,0.038938,-0.002407,0.977876,0.271954,0.222387,9.625499,-0.002101,-0.006085,-0.000955,0.212110,-0.389964,-0.876775,98935.0000
1779273358686800271,2026-05-20 16:05:58.685,-0.178864,2.633027,287.076851,0.041377,-0.002930,0.980060,0.372967,-0.397042,9.706101,-0.000673,0.011517,-0.004498,0.210915,-0.390558,-0.876431,98924.0000
1779273358786547160,2026-05-20 16:05:58.785,-0.175093,2.606373,287.083473,0.033676,-0.002024,0.977019,0.410437,0.115961,9.877660,-0.001812,-0.001552,0.001559,0.209697,-0.392071,-0.876963,98925.0000
1779273358887212345,2026-05-20 16:05:58.885,-0.165777,2.605354,287.097733,0.036902,-0.001309,0.978148,0.078727,-0.068073,9.540833,-0.005112,-0.010416,-0.010533,0.210298,-0.390886,-0.877307,98925.0000
1779273358987032771,2026-05-20 16:05:58.985,-0.151204,2.622699,287.120377,0.041242,-0.002770,0.979901,0.359080,-0.020193,9.819912,-0.003152,0.006855,-0.009867,0.210023,-0.390554,-0.876108,98929.0000
1779273359087060419,2026-05-20 16:05:59.085,-0.131150,2.648360,287.134354,0.037513,-0.001986,0.977403,0.781434,0.284914,9.753020,-0.003873,-0.000034,-0.004104,0.212411,-0.389665,-0.876790,98925.0000
1779273359186515641,2026-05-20 16:05:59.185,-0.114271,2.647426,287.144058,0.035203,-0.005957,0.975746,-0.148720,0.132135,9.574594,-0.001855,-0.009123,0.001272,0.211212,-0.390854,-0.876431,98925.0000
1779273359287122993,2026-05-20 16:05:59.285,-0.109482,2.610278,287.149033,0.040277,-0.003678,0.979601,0.362870,0.136012,9.938159,-0.003415,0.002377,-0.003820,0.212085,-0.391181,-0.877645,98925.0000
1779273359386940845,2026-05-20 16:05:59.385,-0.106055,2.584991,287.154716,0.038498,-0.005129,0.978476,0.620289,-0.461391,9.957234,0.009027,0.014455,0.001138,0.212381,-0.390891,-0.877959,98922.0000
1779273359486773511,2026-05-20 16:05:59.485,-0.110629,2.580171,287.159081,0.029804,-0.003959,0.975769,0.178397,-0.028859,9.814791,0.005470,-0.005797,0.004092,0.210593,-0.390595,-0.877621,98940.0000
1779273359586085863,2026-05-20 16:05:59.584,-0.124849,2.589146,287.168938,0.034405,-0.002865,0.977829,0.131671,-0.158766,9.614387,-0.000483,-0.010625,-0.005749,0.211241,-0.389041,-0.875576,98929.0000
1779273359687140011,2026-05-20 16:05:59.685,-0.134560,2.613203,287.169640,0.040526,-0.003220,0.979744,0.506887,-0.053747,9.900059,-0.001078,-0.001889,0.000099,0.210607,-0.388512,-0.877672,98939.0000
1779273359786990770,2026-05-20 16:05:59.785,-0.130195,2.655156,287.149559,0.038518,-0.001958,0.978077,0.487059,0.118637,9.681000,-0.000119,-0.003410,0.003846,0.213026,-0.389634,-0.875907,98926.0000
1779273359886807511,2026-05-20 16:05:59.885,-0.121891,2.656692,287.113297,0.036721,-0.004102,0.976215,0.050370,0.007202,9.584855,-0.000397,-0.007857,0.010322,0.210878,-0.389439,-0.878856,98926.0000
1779273359987106011,2026-05-20 16:05:59.985,-0.116507,2.592484,287.079338,0.042463,-0.002266,0.979175,0.310061,-0.093037,9.692198,0.001849,0.013580,0.002298,0.212703,-0.390853,-0.876769,98928.0000
1779273360087062400,2026-05-20 16:06:00.085,-0.113884,2.534156,287.051979,0.035167,-0.000713,0.978248,0.661845,0.003504,9.801847,0.001279,0.015171,0.006282,0.211233,-0.391115,-0.875226,98927.0000
1779273360186970789,2026-05-20 16:06:00.185,-0.112446,2.528633,287.027176,0.028976,-0.003854,0.975441,0.351967,-0.007922,9.921280,-0.001485,-0.013410,0.003739,0.211502,-0.391456,-0.876724,98934.0000
1779273360286705437,2026-05-20 16:06:00.285,-0.119083,2.568039,287.005928,0.034540,-0.001743,0.978314,0.187616,0.056930,9.733108,-0.001853,-0.010687,-0.003400,0.210906,-0.390278,-0.877037,98935.0000
1779273360387006585,2026-05-20 16:06:00.385,-0.123225,2.633385,286.987335,0.037779,-0.002247,0.978447,0.397781,-0.181931,9.782462,0.000150,-0.008032,-0.002088,0.210283,-0.391499,-0.877891,98930.0000
1779273360486794177,2026-05-20 16:06:00.485,-0.121145,2.683087,286.969994,0.037526,-0.002512,0.977835,0.565853,0.251622,9.941326,-0.005038,-0.006135,0.005706,0.209370,-0.392118,-0.878453,98929.0000
1779273360586801937,2026-05-20 16:06:00.585,-0.106905,2.681221,286.961990,0.042516,-0.001236,0.978845,0.384634,0.126163,9.761721,-0.010460,-0.001142,-0.003523,0.210303,-0.391761,-0.876686,98934.0000
1779273360687194307,2026-05-20 16:06:00.685,-0.096570,2.612192,286.968163,0.042443,-0.004296,0.980030,0.177891,-0.356493,9.745143,-0.005373,0.014491,-0.010152,0.211176,-0.392089,-0.877900,98930.0000
1779273360787059399,2026-05-20 16:06:00.785,-0.093517,2.557230,286.966934,0.034119,-0.004840,0.977818,0.408547,0.034277,9.928635,-0.002875,0.000904,-0.001846,0.212399,-0.391450,-0.876747,98938.0000
1779273360886979510,2026-05-20 16:06:00.885,-0.100192,2.500967,286.971985,0.036733,-0.004042,0.977980,0.277717,0.044565,9.975930,0.001863,0.002996,-0.000955,0.212127,-0.390821,-0.875555,98938.0000
1779273360986802825,2026-05-20 16:06:00.985,-0.110671,2.475127,286.986343,0.034679,-0.002165,0.977523,0.201875,0.071373,9.714699,0.000049,0.009215,-0.012133,0.212093,-0.390875,-0.877353,98942.0000
1779273361087214233,2026-05-20 16:06:01.085,-0.114378,2.489633,287.006439,0.029944,-0.003975,0.974972,0.204704,0.098287,9.767344,-0.001001,-0.008930,-0.003790,0.211229,-0.390827,-0.875533,98929.0000
1779273361186883436,2026-05-20 16:06:01.185,-0.114615,2.559235,287.013710,0.033076,-0.002564,0.976797,0.261559,0.101120,9.839233,0.002957,-0.015668,0.003484,0.210629,-0.391128,-0.875510,98934.0000
1779273361286811362,2026-05-20 16:06:01.285,-0.107555,2.615211,287.033875,0.040451,-0.001893,0.978644,0.243388,0.106642,9.743788,-0.001780,-0.006510,-0.010588,0.211502,-0.390572,-0.877045,98927.0000
1779273361388066232,2026-05-20 16:06:01.386,-0.100773,2.662732,287.061844,0.037254,-0.004477,0.977536,0.359100,-0.006074,9.864819,0.006275,-0.002628,-0.002976,0.211207,-0.389979,-0.877052,98927.0000
1779273361487219436,2026-05-20 16:06:01.485,-0.097713,2.686973,287.096146,0.042785,-0.003177,0.979071,0.253072,-0.046857,9.722207,0.003895,0.001138,-0.006940,0.211495,-0.390879,-0.877337,98931.0000
1779273361587085029,2026-05-20 16:06:01.585,-0.097712,2.691358,287.137306,0.042690,-0.004463,0.978547,0.514885,-0.158167,9.924453,-0.006184,0.004282,-0.003660,0.210899,-0.388817,-0.877972,98918.0000
1779273361688152399,2026-05-20 16:06:01.686,-0.107768,2.656885,287.177727,0.036915,-0.003226,0.977588,0.981394,0.171114,10.112845,-0.003503,-0.004988,-0.012060,0.212390,-0.390287,-0.877674,98920.0000
1779273361787337084,2026-05-20 16:06:01.785,-0.115304,2.611510,287.217484,0.038022,-0.004764,0.978021,-0.494276,-0.175276,9.482727,0.006659,0.003515,-0.000008,0.212090,-0.389702,-0.877981,98926.0000
1779273361886938880,2026-05-20 16:06:01.885,-0.111420,2.589997,287.246338,0.040330,-0.001324,0.979405,0.567207,0.212968,9.836987,-0.002189,0.010859,-0.006117,0.212116,-0.389071,-0.876797,98928.0000
1779273361986772510,2026-05-20 16:06:01.985,-0.103350,2.591268,287.271484,0.035728,-0.003583,0.976686,0.631138,-0.255898,9.831625,0.003290,-0.001293,-0.002668,0.213038,-0.387848,-0.875950,98935.0000
1779273362088210399,2026-05-20 16:06:02.086,-0.102433,2.579921,287.304520,0.034351,-0.002425,0.976438,0.725723,0.056272,9.919984,0.002351,-0.014673,-0.014015,0.213905,-0.388186,-0.877463,98928.0000
1779273362187059602,2026-05-20 16:06:02.185,-0.098600,2.579830,287.334030,0.039881,-0.005565,0.978349,-0.338624,-0.063058,9.559198,0.005539,0.008970,-0.002672,0.213615,-0.389351,-0.876528,98944.0000
1779273362287065898,2026-05-20 16:06:02.285,-0.093986,2.584470,287.344131,0.035916,-0.002391,0.977373,0.377386,0.011238,9.815616,0.001481,-0.002132,-0.001960,0.213012,-0.388480,-0.877134,98925.0000
1779273362386857435,2026-05-20 16:06:02.385,-0.086870,2.566894,287.344299,0.035849,-0.003896,0.977686,0.577353,-0.094358,9.794599,0.001895,-0.005473,0.000980,0.212711,-0.387895,-0.877440,98925.0000
1779273362487096584,2026-05-20 16:06:02.485,-0.082474,2.562014,287.331078,0.038673,-0.004408,0.979144,0.747531,0.244988,9.712561,-0.003725,-0.003465,0.002845,0.214202,-0.389365,-0.877143,98936.0000
1779273362587019824,2026-05-20 16:06:02.585,-0.076058,2.577944,287.290657,0.037767,-0.006092,0.979704,0.064616,-0.232542,9.749085,0.006316,0.005664,0.008553,0.213025,-0.389048,-0.876221,98926.0000
1779273362686945935,2026-05-20 16:06:02.685,-0.090267,2.585881,287.242767,0.036798,-0.002180,0.978512,0.459504,0.128013,9.881852,-0.000627,-0.000087,0.005178,0.212095,-0.390577,-0.877360,98928.0000
1779273362788071194,2026-05-20 16:06:02.786,-0.114498,2.561952,287.201599,0.038822,-0.003084,0.977462,0.406026,-0.390444,9.827265,0.003243,0.004540,0.008163,0.212701,-0.390267,-0.877083,98934.0000
1779273362887443176,2026-05-20 16:06:02.885,-0.127232,2.540427,287.154861,0.036896,-0.000014,0.975489,0.565588,0.188316,9.701099,0.002678,0.000243,0.007851,0.212426,-0.389052,-0.876205,98929.0000
1779273362987155028,2026-05-20 16:06:02.985,-0.129535,2.500438,287.093933,0.033870,-0.000621,0.974644,-0.042536,-0.115090,9.422107,-0.008300,-0.000968,0.012982,0.212697,-0.390862,-0.877068,98923.0000
1779273363086866120,2026-05-20 16:06:03.085,-0.118363,2.479722,287.021187,0.034490,0.000433,0.978664,0.341716,0.070284,9.816589,-0.000364,-0.001103,0.010976,0.211252,-0.389907,-0.874655,98939.0000
1779273363186496213,2026-05-20 16:06:03.185,-0.083916,2.517699,286.951210,0.037570,-0.000415,0.980748,0.305641,-0.127910,9.871687,-0.001131,0.004378,0.006779,0.211811,-0.390850,-0.876446,98923.0000
1779273363288309379,2026-05-20 16:06:03.285,-0.037992,2.578570,286.871765,0.029035,-0.002831,0.976502,0.157223,0.175439,9.861141,-0.002116,-0.022860,0.015166,0.209400,-0.390892,-0.877284,98938.0000
1779273363387050953,2026-05-20 16:06:03.385,-0.027372,2.583218,286.783279,0.039854,-0.005304,0.979441,0.082938,-0.117139,9.548697,0.003514,-0.010407,0.020198,0.210292,-0.390895,-0.877606,98925.0000
1779273363487003138,2026-05-20 16:06:03.485,-0.040576,2.589999,286.675949,0.045933,-0.004831,0.981133,0.733015,-0.020399,9.698560,0.003220,0.006951,0.014103,0.209397,-0.391487,-0.877270,98934.0000
1779273363587295138,2026-05-20 16:06:03.586,-0.075005,2.592743,286.579048,0.038503,-0.001611,0.976509,0.816581,-0.375457,9.907484,0.007372,0.005076,0.009291,0.207925,-0.390278,-0.876362,98924.0000
1779273363687128731,2026-05-20 16:06:03.685,-0.113889,2.549051,286.481422,0.031931,0.001191,0.974588,-0.008894,0.407822,9.621017,-0.001043,-0.012181,0.015807,0.207623,-0.393229,-0.875383,98935.0000
1779273363786772898,2026-05-20 16:06:03.785,-0.128407,2.511011,286.387909,0.042056,0.000142,0.978791,-0.265862,-0.152428,9.571455,-0.004084,0.009157,0.019234,0.207026,-0.391466,-0.876010,98938.0000
1779273363887149323,2026-05-20 16:06:03.885,-0.107631,2.539346,286.289658,0.036487,0.000106,0.977491,0.838220,-0.213520,9.908134,0.000573,0.009236,0.015734,0.207033,-0.392043,-0.875397,98926.0000
1779273363987005934,2026-05-20 16:06:03.985,-0.075453,2.541132,286.191345,0.030401,0.001113,0.977079,0.946852,-0.052956,9.908289,-0.012548,-0.015864,0.012273,0.207315,-0.393835,-0.875661,98925.0000
1779273364087025342,2026-05-20 16:06:04.085,-0.053793,2.539316,286.096291,0.033264,-0.003194,0.978874,-0.353992,0.108280,9.505708,-0.000431,-0.013272,0.016762,0.205202,-0.395056,-0.876177,98932.0000
1779273364186610471,2026-05-20 16:06:04.185,-0.049474,2.562897,286.017784,0.043995,-0.003033,0.981307,0.019191,-0.072468,9.503091,0.009520,0.008536,0.006456,0.204604,-0.394176,-0.876483,98923.0000
1779273364287233194,2026-05-20 16:06:04.285,-0.059086,2.596552,285.938591,0.039199,-0.002872,0.977778,0.705509,0.062512,9.955047,0.009116,0.002968,0.006503,0.203996,-0.394784,-0.876753,98931.0000
1779273364387255249,2026-05-20 16:06:04.385,-0.084401,2.581670,285.856995,0.035446,-0.000336,0.974432,0.669513,0.200659,9.790996,-0.000982,-0.016854,0.014402,0.204906,-0.394463,-0.876184,98935.0000
1779273364487128860,2026-05-20 16:06:04.485,-0.106895,2.552625,285.784950,0.039284,-0.002443,0.977125,-0.238475,0.062094,9.666212,0.007592,-0.002480,0.015567,0.203091,-0.395096,-0.877022,98934.0000
1779273364587003823,2026-05-20 16:06:04.585,-0.097038,2.535076,285.719124,0.044916,0.000110,0.980453,0.427273,0.127751,9.931242,0.000295,0.018581,0.012088,0.203385,-0.396573,-0.876695,98936.0000
1779273364687257212,2026-05-20 16:06:04.686,-0.072518,2.518671,285.649521,0.031213,-0.001197,0.976645,0.269096,-0.148052,9.839815,0.003925,0.003301,0.013406,0.204596,-0.395367,-0.876454,98925.0000
1779273364787141823,2026-05-20 16:06:04.785,-0.055894,2.493164,285.584854,0.030279,-0.000815,0.977325,0.710969,0.372496,9.961225,-0.009033,-0.016717,0.007518,0.201630,-0.394754,-0.875194,98938.0000
1779273364887201434,2026-05-20 16:06:04.885,-0.050879,2.507488,285.541267,0.039534,-0.005252,0.980415,0.236283,-0.220445,9.746261,0.003338,-0.000042,0.009100,0.203406,-0.395951,-0.875810,98925.0000
1779273364986638526,2026-05-20 16:06:04.985,-0.059099,2.562705,285.505272,0.037470,-0.002609,0.978080,0.351890,0.005791,9.730706,0.008169,0.002281,0.008437,0.202178,-0.396599,-0.877263,98926.0000
1779273365087065341,2026-05-20 16:06:05.085,-0.074133,2.592077,285.469101,0.037629,-0.001918,0.977045,0.663845,-0.354381,9.896504,-0.000799,-0.013517,0.007702,0.201026,-0.396534,-0.874836,98927.0000
1779273365186952563,2026-05-20 16:06:05.185,-0.081204,2.577590,285.428360,0.041205,-0.002193,0.977912,0.434991,-0.054455,9.720273,0.001532,0.002112,0.007395,0.201880,-0.397187,-0.876941,98927.0000
1779273365288261304,2026-05-20 16:06:05.286,-0.073893,2.540458,285.395950,0.039729,-0.000591,0.976851,-0.034642,-0.106339,9.601978,-0.002574,0.006417,0.000713,0.200746,-0.396211,-0.873937,98927.0000
1779273365387284489,2026-05-20 16:06:05.386,-0.068562,2.501040,285.381149,0.035712,-0.002808,0.977404,0.570610,-0.016739,10.092072,-0.002271,0.009538,0.000021,0.201901,-0.397448,-0.875736,98923.0000
1779273365487139230,2026-05-20 16:06:05.485,-0.061849,2.484529,285.361649,0.035058,-0.002593,0.977739,0.862639,-0.001567,9.954684,-0.000775,-0.003226,0.001114,0.201890,-0.397466,-0.876336,98938.0000
1779273365586935989,2026-05-20 16:06:05.585,-0.050297,2.500630,285.337601,0.033525,-0.004779,0.979003,-0.213346,0.129968,9.616517,0.002576,-0.001970,0.005695,0.201585,-0.397477,-0.876627,98930.0000
1779273365686925563,2026-05-20 16:06:05.685,-0.035459,2.516386,285.324112,0.038936,-0.002015,0.979640,0.599707,-0.009628,9.834065,-0.001094,0.003476,-0.000763,0.201293,-0.397172,-0.876327,98925.0000
1779273365787326470,2026-05-20 16:06:05.786,-0.031435,2.527339,285.317429,0.038341,-0.004530,0.977488,0.884394,-0.319546,9.967390,-0.000760,0.000417,0.002373,0.201889,-0.398350,-0.876014,98932.0000
1779273365887039082,2026-05-20 16:06:05.885,-0.038809,2.518106,285.303619,0.037580,-0.003146,0.977500,0.780968,-0.063839,9.956422,0.000147,0.004687,0.002430,0.199778,-0.398390,-0.876859,98931.0000
1779273365986794433,2026-05-20 16:06:05.985,-0.052858,2.483285,285.289970,0.038299,-0.005836,0.977247,-0.007631,-0.339917,9.713271,0.008677,0.006703,0.003721,0.201331,-0.397407,-0.874223,98930.0000
1779273366088222044,2026-05-20 16:06:06.086,-0.071702,2.438845,285.290031,0.036370,-0.001069,0.977683,0.369924,0.057607,9.692801,0.003730,0.008749,-0.001291,0.200410,-0.397449,-0.875399,98930.0000
1779273366187100507,2026-05-20 16:06:06.185,-0.074448,2.422374,285.289597,0.032583,-0.002166,0.977484,0.263465,-0.217838,9.749667,0.000859,0.005600,-0.003856,0.202817,-0.398002,-0.874547,98930.0000
1779273366286988711,2026-05-20 16:06:06.285,-0.062596,2.439107,285.273994,0.031063,-0.002698,0.977072,0.658213,0.274977,10.033783,0.001143,-0.015707,0.001574,0.200981,-0.398374,-0.876590,98926.0000
1779273366386852711,2026-05-20 16:06:06.385,-0.049846,2.459983,285.254669,0.036492,-0.003866,0.978112,0.063465,-0.195035,9.581039,0.003930,0.000198,0.007656,0.201613,-0.397432,-0.875129,98930.0000
1779273366487298970,2026-05-20 16:06:06.486,-0.045075,2.476036,285.229355,0.035217,-0.003475,0.977879,0.122917,-0.181076,9.720517,0.007744,0.001234,0.009902,0.200684,-0.397194,-0.876911,98923.0000
1779273366587195600,2026-05-20 16:06:06.585,-0.054389,2.503845,285.184967,0.037368,-0.001669,0.979118,1.222010,0.152734,9.995656,0.005879,-0.001645,0.003356,0.200073,-0.399867,-0.876531,98932.0000
1779273366686880044,2026-05-20 16:06:06.685,-0.070234,2.550549,285.131607,0.035867,-0.004188,0.976913,0.478636,-0.271623,9.841338,0.004896,-0.009342,0.011795,0.200102,-0.398055,-0.875676,98922.0000
1779273366786846396,2026-05-20 16:06:06.785,-0.089647,2.539804,285.088234,0.040666,-0.000112,0.978801,0.014417,0.172207,9.615519,0.000583,0.000049,0.000220,0.200078,-0.397505,-0.877188,98933.0000
1779273366887118544,2026-05-20 16:06:06.885,-0.088223,2.510354,285.053772,0.041682,0.000462,0.979633,0.764802,0.207492,9.841540,-0.002466,0.008827,0.001478,0.199475,-0.399871,-0.876516,98932.0000
1779273366986986285,2026-05-20 16:06:06.985,-0.072175,2.462418,285.029053,0.036594,-0.001802,0.976638,0.232651,-0.139256,9.559407,-0.005749,0.008977,0.002860,0.198342,-0.397714,-0.873840,98922.0000
1779273367086837359,2026-05-20 16:06:07.085,-0.047478,2.409322,285.013290,0.036903,-0.001950,0.978066,0.244627,-0.069416,9.605723,0.001725,0.009538,0.006560,0.199791,-0.399842,-0.875625,98930.0000
1779273367187378229,2026-05-20 16:06:07.186,-0.027858,2.369509,285.008713,0.029762,-0.003767,0.976494,-0.042471,0.124009,9.671934,-0.000260,-0.001249,0.004950,0.198883,-0.398982,-0.876522,98917.0000
1779273367287044821,2026-05-20 16:06:07.285,-0.017750,2.365675,285.016243,0.035079,-0.004426,0.977625,0.355861,0.074925,9.630108,0.001198,-0.002010,-0.002105,0.200696,-0.398646,-0.875677,98934.0000
1779273367386796451,2026-05-20 16:06:07.385,-0.024001,2.413978,285.024864,0.036314,-0.005162,0.979055,0.329355,-0.220815,9.717546,0.005949,0.006317,-0.008330,0.200710,-0.397447,-0.875406,98931.0000
1779273367486751821,2026-05-20 16:06:07.485,-0.047180,2.449689,285.035423,0.030131,-0.004391,0.977076,0.247822,-0.051248,9.736288,0.001914,-0.015164,-0.005839,0.199515,-0.398040,-0.875061,98928.0000
1779273367587167858,2026-05-20 16:06:07.585,-0.071592,2.445479,285.057983,0.040087,-0.002874,0.980071,0.188868,0.042718,9.664910,0.001316,-0.001454,-0.005646,0.202808,-0.397722,-0.875153,98927.0000
1779273367687022210,2026-05-20 16:06:07.685,-0.081077,2.464156,285.074493,0.039169,-0.001457,0.978408,0.543400,0.159022,9.642600,0.005397,0.000297,-0.006747,0.200106,-0.398343,-0.875369,98929.0000
1779273367786928543,2026-05-20 16:06:07.785,-0.086236,2.452880,285.099510,0.035416,-0.002596,0.976425,0.227949,-0.201767,9.649990,-0.008954,-0.003374,-0.010104,0.199519,-0.396561,-0.875397,98930.0000
1779273367888194080,2026-05-20 16:06:07.886,-0.077397,2.447631,285.131111,0.037645,-0.002400,0.977927,0.296157,0.083765,9.852772,0.002809,0.006610,-0.005175,0.201022,-0.398897,-0.874179,98934.0000
1779273367987557414,2026-05-20 16:06:07.985,-0.059372,2.449773,285.163040,0.034778,-0.001982,0.977004,0.613264,0.178474,9.861478,-0.008842,0.000311,-0.002042,0.199788,-0.396018,-0.877216,98940.0000
1779273368087072284,2026-05-20 16:06:08.085,-0.047299,2.455867,285.178574,0.032772,-0.006387,0.976996,0.068280,0.000714,9.782405,-0.000510,-0.006876,0.003018,0.202499,-0.397445,-0.875752,98930.0000
1779273368186871599,2026-05-20 16:06:08.185,-0.044921,2.486690,285.183624,0.038907,-0.003129,0.980171,0.373474,0.223252,9.856991,-0.004497,-0.007384,-0.003500,0.201841,-0.398134,-0.878717,98937.0000
1779273368287234006,2026-05-20 16:06:08.285,-0.050495,2.521869,285.184219,0.037612,-0.003838,0.978052,0.395641,-0.424294,9.831810,-0.002302,-0.005650,-0.004208,0.200682,-0.397492,-0.876904,98917.0000
1779273368386917617,2026-05-20 16:06:08.385,-0.062187,2.512184,285.186584,0.038026,-0.002994,0.976950,0.213477,0.095951,9.780554,0.003219,-0.002682,0.005765,0.201009,-0.397445,-0.875414,98926.0000
1779273368486981376,2026-05-20 16:06:08.485,-0.066974,2.512304,285.192520,0.041239,-0.002662,0.978515,0.300631,-0.097802,9.749239,0.007446,0.005722,-0.000325,0.202793,-0.397452,-0.876059,98939.0000
1779273368588122191,2026-05-20 16:06:08.586,-0.068805,2.510737,285.183128,0.037399,-0.003093,0.977491,0.694741,-0.080932,10.005314,0.005094,0.005783,0.001865,0.200672,-0.398979,-0.876868,98926.0000
1779273368687608802,2026-05-20 16:06:08.686,-0.069698,2.486174,285.176147,0.034170,-0.000622,0.978276,0.590856,0.146842,9.946749,-0.000394,-0.003756,0.004018,0.200390,-0.397187,-0.876604,98934.0000
1779273368787212617,2026-05-20 16:06:08.785,-0.063505,2.482326,285.169212,0.035655,-0.002943,0.976854,0.119616,-0.266798,9.617939,0.001059,-0.002696,0.003675,0.201300,-0.397750,-0.875714,98926.0000
1779273368887124265,2026-05-20 16:06:08.885,-0.053550,2.502390,285.156525,0.040131,-0.001147,0.979555,0.461655,-0.004236,9.793781,-0.002897,0.001162,-0.003608,0.200053,-0.397838,-0.878379,98932.0000
1779273368987419561,2026-05-20 16:06:08.986,-0.045511,2.505977,285.145210,0.039353,-0.001820,0.978020,0.864803,-0.121818,9.969190,-0.003842,0.004842,-0.007924,0.200992,-0.397472,-0.876313,98928.0000
1779273369087348098,2026-05-20 16:06:09.086,-0.039379,2.468976,285.141464,0.035981,-0.005469,0.976165,0.293449,-0.122471,9.727942,0.003794,0.005718,0.003589,0.200683,-0.398078,-0.876590,98929.0000
1779273369186922654,2026-05-20 16:06:09.185,-0.044039,2.443109,285.131248,0.036221,-0.002642,0.978275,0.056051,0.336471,9.686460,0.005116,0.001463,0.001092,0.201342,-0.396505,-0.873945,98930.0000
1779273369286716413,2026-05-20 16:06:09.285,-0.049841,2.429427,285.119667,0.037797,-0.002438,0.978964,0.839913,0.002489,9.974523,0.000788,0.008811,-0.003505,0.201287,-0.398065,-0.876306,98934.0000
1779273369387630079,2026-05-20 16:06:09.386,-0.056832,2.429877,285.103561,0.031628,-0.005072,0.976189,0.315551,-0.315812,9.819298,0.005538,-0.001429,0.009136,0.200416,-0.397440,-0.875099,98934.0000
1779273369487095987,2026-05-20 16:06:09.485,-0.060455,2.437410,285.078964,0.035318,-0.001582,0.977986,-0.196274,-0.131621,9.612115,0.009011,-0.000539,0.000743,0.201297,-0.398345,-0.875699,98938.0000
1779273369586859339,2026-05-20 16:06:09.585,-0.054592,2.447079,285.063805,0.037832,0.000446,0.978254,0.958586,0.058187,9.949812,-0.002040,0.000935,-0.001863,0.198900,-0.398071,-0.875945,98926.0000
1779273369686570690,2026-05-20 16:06:09.685,-0.049472,2.483045,285.040268,0.033999,-0.004506,0.976143,0.127938,-0.302252,9.732845,0.006849,-0.004004,0.009171,0.201306,-0.397741,-0.875414,98927.0000
1779273369787039431,2026-05-20 16:06:09.785,-0.054309,2.509573,285.011490,0.040166,-0.001987,0.978882,0.477912,0.082265,9.826322,0.001947,-0.003816,0.005071,0.200407,-0.398044,-0.875384,98937.0000
1779273369887203153,2026-05-20 16:06:09.885,-0.057031,2.507018,284.997887,0.043883,-0.001484,0.979893,1.002526,0.089366,9.997472,0.001268,0.015038,0.002031,0.200403,-0.398639,-0.875370,98934.0000
1779273369986884931,2026-05-20 16:06:09.985,-0.056934,2.482971,285.003143,0.035112,-0.002379,0.977113,0.579426,-0.168029,9.805791,-0.001725,-0.003995,0.002721,0.199807,-0.397461,-0.875683,98931.0000
1779273370087335690,2026-05-20 16:06:10.086,-0.062153,2.446650,285.000488,0.036705,-0.002430,0.977005,0.513844,-0.124486,9.806738,0.001664,0.000487,0.002246,0.200078,-0.397505,-0.877188,98932.0000
1779273370186985005,2026-05-20 16:06:10.185,-0.066907,2.409118,285.004303,0.038095,-0.001162,0.978786,0.056548,0.209973,9.650352,0.001334,0.002168,-0.007365,0.200399,-0.398350,-0.875676,98921.0000
1779273370286959394,2026-05-20 16:06:10.285,-0.057832,2.401999,285.029778,0.036037,-0.001899,0.977838,0.451487,-0.175182,9.600359,-0.002535,0.007304,-0.015608,0.199490,-0.399258,-0.875931,98923.0000
1779273370388133838,2026-05-20 16:06:10.386,-0.050347,2.394159,285.068596,0.029836,-0.003770,0.977161,-0.118655,-0.108226,9.564777,0.000461,-0.003845,-0.004106,0.201617,-0.397721,-0.874823,98926.0000
1779273370487327431,2026-05-20 16:06:10.486,-0.047714,2.422527,285.098366,0.036147,-0.002579,0.978398,0.674330,0.304901,9.807259,-0.000851,-0.009732,-0.007040,0.202505,-0.397436,-0.875452,98930.0000
1779273370587366801,2026-05-20 16:06:10.586,-0.039389,2.463454,285.129211,0.043603,-0.005068,0.979731,0.340582,-0.373212,9.709904,0.002392,0.006358,-0.002823,0.201897,-0.396276,-0.876364,98930.0000
1779273370687201319,2026-05-20 16:06:10.685,-0.027842,2.482128,285.148407,0.039282,-0.003993,0.977429,0.534057,-0.275713,9.834867,0.006932,0.007734,0.002545,0.200996,-0.397761,-0.876006,98924.0000
1779273370787456134,2026-05-20 16:06:10.786,-0.027427,2.430462,285.165222,0.034099,-0.002216,0.975557,0.394476,0.177230,9.738952,-0.000458,-0.003028,-0.007108,0.201609,-0.397144,-0.875436,98930.0000
1779273370887099097,2026-05-20 16:06:10.885,-0.027100,2.377576,285.189255,0.039532,-0.002511,0.978843,0.089001,0.114510,9.634883,-0.003961,0.007970,-0.012279,0.201296,-0.395107,-0.876976,98927.0000
1779273370986980616,2026-05-20 16:06:10.985,-0.023336,2.370377,285.224113,0.035349,-0.004216,0.979263,0.076242,-0.174267,9.608459,-0.000361,0.010977,-0.011428,0.202795,-0.397154,-0.876066,98930.0000
1779273371087098597,2026-05-20 16:06:11.085,-0.028946,2.388361,285.249954,0.026522,-0.003768,0.975750,0.169620,0.371003,9.784508,0.001572,-0.014528,-0.002556,0.202505,-0.395668,-0.876094,98929.0000
1779273371187357152,2026-05-20 16:06:11.185,-0.035657,2.415890,285.275215,0.037297,-0.002971,0.978179,0.371200,0.107590,9.914305,0.001740,-0.007494,-0.007761,0.200979,-0.397788,-0.876904,98924.0000
1779273371287223171,2026-05-20 16:06:11.285,-0.041160,2.449099,285.308525,0.041997,-0.004530,0.979945,0.322023,-0.215863,9.801226,0.006014,0.003781,-0.006000,0.201903,-0.396267,-0.876064,98934.0000
1779273371387330819,2026-05-20 16:06:11.386,-0.040589,2.502039,285.332352,0.034191,-0.003855,0.976516,0.618833,0.153326,10.077782,-0.000408,-0.013829,-0.000512,0.201914,-0.395365,-0.875786,98924.0000
1779273371486526134,2026-05-20 16:06:11.485,-0.044646,2.477357,285.356979,0.040538,-0.002021,0.977438,0.357434,-0.050044,9.789266,-0.001072,-0.003790,-0.000201,0.203980,-0.396281,-0.877017,98932.0000
1779273371587124208,2026-05-20 16:06:11.585,-0.039664,2.427898,285.374268,0.042361,-0.002832,0.979257,0.120602,-0.105015,9.719664,0.001813,0.019309,-0.004477,0.202793,-0.394801,-0.877022,98929.0000
1779273371687247985,2026-05-20 16:06:11.686,-0.032621,2.406103,285.376480,0.031291,-0.004601,0.976167,0.524933,0.122958,9.824789,0.003626,0.006817,-0.001009,0.203397,-0.395672,-0.876417,98928.0000
1779273371787041652,2026-05-20 16:06:11.785,-0.029015,2.381314,285.379250,0.033723,-0.002486,0.978684,0.566515,-0.075012,9.838653,0.002511,-0.005686,0.002697,0.204285,-0.395387,-0.877046,98933.0000
1779273371887395541,2026-05-20 16:06:11.886,-0.038268,2.391723,285.387466,0.036127,-0.002707,0.979228,0.072689,-0.170974,9.675806,-0.000540,-0.007788,-0.005004,0.202806,-0.395369,-0.876109,98932.0000
1779273371987222967,2026-05-20 16:06:11.985,-0.047994,2.438516,285.389328,0.037193,-0.003966,0.977813,0.634243,0.043930,9.883101,0.001615,-0.010041,-0.001487,0.203074,-0.396007,-0.877600,98933.0000
1779273372087010207,2026-05-20 16:06:12.085,-0.060025,2.441821,285.401947,0.037053,-0.000991,0.977744,0.403498,-0.056631,9.788555,0.002665,-0.001828,0.002415,0.203069,-0.397486,-0.877264,98929.0000
1779273372186973448,2026-05-20 16:06:12.185,-0.054207,2.426683,285.416023,0.041256,-0.001597,0.978344,0.131335,-0.222645,9.685420,-0.008011,0.005075,-0.007702,0.203711,-0.395057,-0.875840,98928.0000
1779273372287189504,2026-05-20 16:06:12.285,-0.041318,2.412483,285.421539,0.038401,-0.003637,0.976996,0.505309,0.037066,9.870917,-0.001453,0.004891,0.000138,0.202515,-0.395064,-0.875809,98934.0000
1779273372387004874,2026-05-20 16:06:12.385,-0.022437,2.378231,285.422241,0.032248,-0.001704,0.976504,0.161421,0.193199,9.714208,-0.009101,-0.004672,-0.003408,0.203406,-0.395951,-0.875810,98936.0000
1779273372488255541,2026-05-20 16:06:12.487,-0.008787,2.341271,285.432869,0.035529,-0.004007,0.978980,0.338364,-0.048477,9.812542,-0.006070,0.002844,-0.004063,0.204609,-0.395051,-0.875862,98930.0000
1779273372588155466,2026-05-20 16:06:12.586,-0.006656,2.363475,285.438843,0.032950,-0.007329,0.978147,0.393576,-0.015343,9.842032,0.010948,0.000235,0.002660,0.204603,-0.395060,-0.876162,98928.0000
1779273372687232337,2026-05-20 16:06:12.686,-0.016933,2.410268,285.448936,0.034977,-0.003558,0.978391,0.523619,0.103999,10.015982,0.002017,-0.014309,-0.005403,0.203719,-0.393866,-0.875868,98936.0000
1779273372787148244,2026-05-20 16:06:12.785,-0.033233,2.462487,285.449715,0.039391,-0.004230,0.978384,0.525693,-0.479965,9.849334,0.007423,-0.005114,0.004404,0.203397,-0.395672,-0.876417,98934.0000
1779273372887184929,2026-05-20 16:06:12.885,-0.045254,2.473477,285.451065,0.039029,-0.001772,0.978496,0.679102,-0.003133,9.940620,0.006324,0.004366,-0.002188,0.203421,-0.395338,-0.875225,98927.0000
1779273372987437837,2026-05-20 16:06:12.986,-0.041813,2.464990,285.454964,0.041685,-0.001674,0.977979,0.083496,-0.081156,9.551966,-0.001376,0.005007,-0.002635,0.202793,-0.394801,-0.877022,98936.0000
1779273373087265892,2026-05-20 16:06:13.086,-0.035956,2.436738,285.452599,0.037897,-0.002781,0.976897,0.472340,0.122327,9.722665,0.009064,0.009167,-0.000083,0.204007,-0.395650,-0.875833,98934.0000
1779273373186869336,2026-05-20 16:06:13.185,-0.033314,2.384519,285.452499,0.037363,-0.000138,0.976902,1.126262,0.058628,9.947041,-0.006499,0.003368,-0.006871,0.203985,-0.393919,-0.877673,98936.0000
1779273373288255318,2026-05-20 16:06:13.287,-0.027668,2.342914,285.453262,0.031878,-0.004451,0.977013,-0.054083,-0.337143,9.644855,-0.001589,-0.001947,0.005943,0.204891,-0.395960,-0.876448,98930.0000
1779273373387528670,2026-05-20 16:06:13.386,-0.022268,2.343760,285.429222,0.036193,-0.003029,0.980146,0.097193,0.078946,9.732043,0.008022,0.007749,0.004230,0.204296,-0.395369,-0.876447,98934.0000
1779273373487164855,2026-05-20 16:06:13.485,-0.013979,2.363008,285.408051,0.032896,-0.001673,0.979649,0.941875,0.243855,10.047359,-0.003349,-0.000937,-0.002639,0.202501,-0.395380,-0.876401,98934.0000
1779273373586616429,2026-05-20 16:06:13.585,-0.017682,2.368344,285.393608,0.031937,-0.004738,0.976947,0.040331,-0.142554,9.799790,-0.001154,-0.013816,0.007289,0.203117,-0.396233,-0.875196,98924.0000
1779273373687558744,2026-05-20 16:06:13.685,-0.025657,2.385130,285.362000,0.041748,-0.002701,0.978727,0.218445,-0.119130,9.713243,0.005147,0.007499,0.003980,0.203999,-0.395957,-0.876125,98939.0000
1779273373787323910,2026-05-20 16:06:13.785,-0.026233,2.391123,285.335129,0.037172,-0.000856,0.976159,0.720492,0.136652,9.835722,0.001186,0.008077,0.002069,0.203383,-0.396871,-0.876687,98931.0000
1779273373887183429,2026-05-20 16:06:13.885,-0.033228,2.369819,285.325348,0.033547,-0.002905,0.975455,0.226819,-0.130961,9.669345,0.003609,-0.000832,0.003605,0.204898,-0.395653,-0.876156,98927.0000
1779273373988266206,2026-05-20 16:06:13.987,-0.036022,2.368175,285.318962,0.033963,-0.001718,0.978590,0.408422,-0.067287,9.755208,-0.000784,-0.001996,0.001985,0.202198,-0.395977,-0.876379,98928.0000
1779273374087745391,2026-05-20 16:06:14.086,-0.038053,2.380864,285.311279,0.034899,-0.001514,0.979815,0.549242,0.009462,9.805788,0.003359,0.005804,0.005326,0.204307,-0.396234,-0.875527,98922.0000
1779273374187764540,2026-05-20 16:06:14.185,-0.030172,2.404388,285.305115,0.035291,-0.003523,0.978792,-0.025210,-0.217465,9.560124,0.002261,-0.005814,0.008654,0.200377,-0.396619,-0.877517,98923.0000
1779273374286833521,2026-05-20 16:06:14.285,-0.025697,2.419558,285.302773,0.043276,-0.002215,0.980041,0.499352,0.093216,9.834813,0.004428,0.008338,-0.008572,0.202198,-0.395977,-0.876379,98936.0000
1779273374386693076,2026-05-20 16:06:14.385,-0.023033,2.421026,285.298042,0.036190,-0.001631,0.975618,0.829364,0.183658,9.952016,-0.001024,0.002470,-0.003729,0.202496,-0.394505,-0.877021,98932.0000
1779273374487132817,2026-05-20 16:06:14.485,-0.033683,2.378875,285.292458,0.034628,-0.004231,0.974643,0.141292,0.125522,9.567126,-0.004162,-0.000037,0.005662,0.203382,-0.396285,-0.877001,98933.0000
1779273374586980373,2026-05-20 16:06:14.585,-0.037419,2.342817,285.283585,0.039208,-0.002759,0.979945,0.138794,0.178363,9.775429,0.001986,0.012213,0.011741,0.202812,-0.395360,-0.875809,98932.0000
1779273374686947595,2026-05-20 16:06:14.685,-0.032382,2.331532,285.272568,0.032939,-0.001914,0.978646,0.410926,0.275498,9.928662,0.004377,0.006050,0.003918,0.204032,-0.394433,-0.874963,98930.0000
1779273374787370687,2026-05-20 16:06:14.785,-0.015010,2.330770,285.256149,0.031678,-0.001697,0.977396,0.451941,-0.021188,9.808767,-0.005238,-0.004259,0.002927,0.203113,-0.395060,-0.875824,98928.0000
1779273374887308132,2026-05-20 16:06:14.885,0.000840,2.342853,285.255745,0.033732,-0.003660,0.978655,-0.184864,-0.477606,9.638176,0.004493,-0.001432,-0.001697,0.203740,-0.395012,-0.874342,98924.0000
1779273374987064317,2026-05-20 16:06:14.985,0.007649,2.418261,285.255310,0.035187,-0.004023,0.977352,0.563637,-0.037181,9.852096,0.000332,-0.019258,-0.000695,0.203999,-0.395073,-0.876446,98933.0000
1779273375087292169,2026-05-20 16:06:15.085,0.002327,2.485277,285.275520,0.040550,-0.003703,0.977644,0.389731,-0.069944,9.720352,0.004278,-0.003375,-0.004325,0.202185,-0.395408,-0.877292,98930.0000
1779273375187299761,2026-05-20 16:06:15.186,-0.015382,2.519628,285.293060,0.039560,-0.004094,0.977523,0.314864,-0.078702,9.851367,0.005169,-0.006349,-0.002198,0.203724,-0.395625,-0.874927,98930.0000
1779273375287508391,2026-05-20 16:06:15.285,-0.032254,2.508860,285.292793,0.043420,-0.004065,0.978990,0.729612,0.042500,9.933260,-0.001719,-0.005785,0.002179,0.202221,-0.395057,-0.875502,98925.0000
1779273375387305891,2026-05-20 16:06:15.385,-0.033692,2.464133,285.281830,0.044651,-0.002186,0.979722,0.006096,0.099547,9.628563,0.002136,0.017176,0.002989,0.203410,-0.395356,-0.875825,98935.0000
1779273375487198891,2026-05-20 16:06:15.485,-0.024581,2.379644,285.271202,0.035941,-0.000831,0.976980,0.206100,-0.269281,9.655242,-0.004224,0.013914,-0.000587,0.203405,-0.394481,-0.876445,98925.0000
1779273375587223854,2026-05-20 16:06:15.585,-0.011634,2.306902,285.268639,0.031456,-0.002456,0.976954,0.607146,-0.116745,9.915851,-0.004903,0.003706,-0.001613,0.204014,-0.396227,-0.875219,98932.0000
1779273375687120816,2026-05-20 16:06:15.685,0.002494,2.298721,285.272202,0.031157,-0.004325,0.978111,0.263360,-0.108774,9.804744,0.002569,-0.004083,-0.001111,0.204001,-0.395659,-0.876133,98928.0000
1779273375788401724,2026-05-20 16:06:15.787,0.007222,2.347384,285.265976,0.032291,-0.003953,0.978214,0.404114,-0.190838,9.741858,0.000583,-0.002435,-0.004705,0.204016,-0.395046,-0.875548,98921.0000
1779273375887382594,2026-05-20 16:06:15.886,-0.002491,2.420625,285.260674,0.031939,-0.005104,0.976742,0.336093,0.174446,9.844955,0.001791,-0.019410,0.005086,0.203738,-0.394425,-0.874656,98927.0000
1779273375987344501,2026-05-20 16:06:15.986,-0.011403,2.492275,285.251534,0.039868,-0.001632,0.977870,0.562315,0.198834,9.948331,-0.001273,-0.018255,0.002072,0.200708,-0.395977,-0.876041,98923.0000
1779273376087524964,2026-05-20 16:06:16.086,-0.011497,2.517545,285.237114,0.047145,-0.003055,0.979831,0.566016,-0.220927,9.874499,-0.002500,0.008052,0.001863,0.202791,-0.395982,-0.876694,98930.0000
1779273376186782853,2026-05-20 16:06:16.185,-0.007778,2.489218,285.219971,0.040289,-0.003965,0.976591,0.368736,-0.309928,9.881987,0.008951,0.012183,0.008343,0.202505,-0.394785,-0.876416,98930.0000
1779273376287207594,2026-05-20 16:06:16.285,-0.004956,2.286101,285.241905,0.039827,-0.001129,0.982180,0.384004,-0.047489,9.948508,0.004061,0.065022,-0.010025,0.203736,-0.394723,-0.874649,98931.0000
1779273376386997946,2026-05-20 16:06:16.385,-0.002060,1.720692,285.385948,0.024456,-0.002512,0.983538,0.069235,-0.151607,9.966044,0.002897,0.120016,-0.042130,0.208261,-0.394046,-0.872980,98932.0000
1779273376488221279,2026-05-20 16:06:16.486,0.016114,1.009055,285.643501,-0.003924,-0.003771,0.983011,-0.267870,0.316393,9.846243,-0.003454,0.125866,-0.050797,0.214282,-0.394244,-0.871030,98928.0000
1779273376587327075,2026-05-20 16:06:16.586,0.052231,0.338567,286.044189,-0.029999,-0.004432,0.982219,-0.619088,-0.079449,9.638306,-0.011631,0.116534,-0.091229,0.220939,-0.392905,-0.867632,98935.0000
1779273376687230927,2026-05-20 16:06:16.685,0.106088,-0.127368,286.586281,-0.054264,-0.010946,0.978438,-0.839130,-0.159966,9.587754,-0.006437,0.061091,-0.095686,0.227892,-0.389509,-0.865191,98928.0000
1779273376787118649,2026-05-20 16:06:16.785,0.169331,-0.279393,287.203392,-0.055442,-0.012760,0.978719,-0.600870,0.141786,9.770844,-0.011093,0.023251,-0.112585,0.232104,-0.385028,-0.865706,98929.0000
1779273376887050464,2026-05-20 16:06:16.885,0.216867,-0.401819,287.878616,-0.049652,-0.017239,0.977193,0.193680,0.071488,9.763618,-0.016428,0.032226,-0.104481,0.236910,-0.382023,-0.865900,98928.0000
1779273376987369667,2026-05-20 16:06:16.986,0.221307,-0.802041,288.713638,-0.072135,-0.020702,0.975741,-1.502930,0.235474,8.675412,0.041012,0.111215,-0.167316,0.244767,-0.377728,-0.863504,98933.0000
1779273377087202075,2026-05-20 16:06:17.085,0.156888,-1.465255,289.864273,-0.105768,-0.027292,0.974417,-0.840635,-0.471378,10.428068,0.017847,0.071971,-0.185149,0.255956,-0.371285,-0.859744,98926.0000
1779273377186827890,2026-05-20 16:06:17.185,0.038549,-1.702388,291.037346,-0.124084,-0.015617,0.973332,-0.734335,0.451560,9.944190,0.030769,-0.001949,-0.204144,0.265013,-0.365503,-0.857714,98930.0000
1779273377287378797,2026-05-20 16:06:17.286,-0.067239,-1.373978,292.204773,-0.124749,-0.008744,0.969326,-0.331112,0.107192,9.796741,0.000760,-0.103786,-0.204967,0.270408,-0.361331,-0.858851,98932.0000
1779273377387268556,2026-05-20 16:06:17.385,-0.060293,-0.650769,293.335434,-0.085878,0.004910,0.975211,-0.040154,-0.154904,9.593860,-0.007378,-0.127227,-0.202971,0.273364,-0.354891,-0.863279,98935.0000
1779273377487103778,2026-05-20 16:06:17.485,0.077744,0.032396,294.518883,-0.048236,-0.000962,0.975668,-0.252000,0.582655,10.106065,-0.031393,-0.080702,-0.235676,0.277242,-0.348997,-0.866219,98932.0000
1779273377587035556,2026-05-20 16:06:17.585,0.157656,0.288850,295.903435,-0.038236,-0.022173,0.972973,-0.158511,1.013868,10.200077,-0.019623,-0.025232,-0.247380,0.283530,-0.338641,-0.869926,98934.0000
1779273377687454982,2026-05-20 16:06:17.686,0.072976,0.278802,297.349770,-0.035680,-0.029030,0.971672,0.213402,-0.717163,9.958943,0.012715,-0.009273,-0.244819,0.291666,-0.330548,-0.870027,98933.0000
1779273377787145593,2026-05-20 16:06:17.785,-0.142116,0.268052,298.762833,-0.041513,-0.018246,0.974616,-1.107598,-0.327415,9.338169,0.047749,-0.011956,-0.242811,0.299813,-0.325087,-0.868566,98935.0000
1779273377887074408,2026-05-20 16:06:17.885,-0.328559,0.322384,300.209663,-0.028348,0.004192,0.981893,0.072845,0.346196,9.776740,0.031577,-0.028814,-0.268553,0.307094,-0.316341,-0.866562,98930.0000
1779273377986785685,2026-05-20 16:06:17.985,-0.387136,0.439409,301.809349,-0.018661,0.013742,0.983136,-0.630466,0.010437,9.308630,-0.001236,-0.036620,-0.293373,0.313746,-0.305588,-0.866989,98933.0000
1779273378087404537,2026-05-20 16:06:18.086,-0.328956,0.641917,303.645302,-0.002151,0.015289,0.984639,-0.622501,0.197457,9.550654,-0.011570,-0.037393,-0.344690,0.323388,-0.294230,-0.867807,98921.0000
1779273378186970611,2026-05-20 16:06:18.185,-0.224899,0.845272,305.672157,0.010274,0.006089,0.982896,0.328929,0.002354,10.002850,-0.014074,-0.038583,-0.363079,0.331808,-0.279975,-0.871062,98928.0000
1779273378286904833,2026-05-20 16:06:18.285,-0.136548,0.979003,307.777981,0.022000,-0.003816,0.981495,0.483161,0.353970,9.834483,-0.014710,-0.012549,-0.370721,0.339029,-0.265141,-0.874601,98926.0000
1779273378387408407,2026-05-20 16:06:18.386,-0.109976,0.942493,309.873703,0.026718,-0.011694,0.978446,0.436887,0.019863,9.783773,-0.005404,0.017134,-0.365181,0.348457,-0.249231,-0.872523,98932.0000
1779273378487259204,2026-05-20 16:06:18.486,-0.128121,0.731845,311.940807,0.022775,-0.011007,0.977617,0.125974,-0.280046,9.675551,-0.000186,0.047083,-0.362209,0.359328,-0.234573,-0.872851,98924.0000
1779273378587125648,2026-05-20 16:06:18.585,-0.133140,0.424173,314.019596,0.011813,-0.002257,0.976309,0.038365,-0.255204,9.757026,-0.009598,0.047808,-0.371038,0.367518,-0.221682,-0.871870,98930.0000
1779273378686964166,2026-05-20 16:06:18.685,-0.108794,0.164123,316.148026,-0.002265,-0.003097,0.976943,-0.212079,0.374250,9.895579,-0.009257,0.028165,-0.379425,0.379360,-0.204252,-0.869290,98933.0000
1779273378787505796,2026-05-20 16:06:18.786,-0.065558,0.042726,318.324768,-0.010619,-0.007183,0.977076,-0.080862,0.350908,9.842286,-0.005468,0.009147,-0.382294,0.386977,-0.187496,-0.868386,98931.0000
1779273378887311277,2026-05-20 16:06:18.885,-0.036170,0.072107,320.502663,-0.012079,-0.007318,0.977457,-0.124525,-0.039435,9.762951,0.000950,-0.008948,-0.380033,0.392127,-0.172639,-0.870673,98932.0000
1779273378988328555,2026-05-20 16:06:18.987,-0.050886,0.206286,322.670753,-0.008130,-0.009347,0.977926,-0.353609,-0.257181,9.672610,0.003836,-0.026856,-0.378052,0.397628,-0.154750,-0.871242,98937.0000
1779273379087515222,2026-05-20 16:06:19.086,-0.094670,0.386050,324.852833,0.000240,-0.007635,0.978035,0.137607,-0.095859,9.948284,0.008919,-0.033350,-0.383296,0.401347,-0.137739,-0.870845,98929.0000
1779273379187078481,2026-05-20 16:06:19.185,-0.143464,0.541119,327.078491,0.009547,-0.006771,0.979222,0.038768,-0.256150,9.803304,0.005311,-0.014973,-0.394095,0.404397,-0.120252,-0.874341,98932.0000
1779273379287502074,2026-05-20 16:06:19.285,-0.157876,0.607093,329.338680,0.016654,-0.002776,0.980164,0.067467,-0.176789,9.771183,-0.009890,-0.004997,-0.399038,0.408745,-0.102597,-0.872476,98939.0000
1779273379386892833,2026-05-20 16:06:19.385,-0.125703,0.554964,331.577766,0.017908,-0.003849,0.980170,0.072369,-0.062198,9.750192,-0.006104,0.018769,-0.386950,0.411854,-0.083839,-0.873305,98928.0000
1779273379487383110,2026-05-20 16:06:19.485,-0.056616,0.429056,333.762985,0.011737,-0.004627,0.979656,-0.126390,0.080986,9.725734,-0.022945,0.023694,-0.380688,0.414976,-0.065650,-0.873221,98926.0000
1779273379587206110,2026-05-20 16:06:19.585,0.005651,0.288857,335.922321,0.005750,-0.008339,0.978145,-0.037825,0.034117,9.697682,-0.006028,0.021710,-0.374761,0.418375,-0.047494,-0.874343,98927.0000
1779273379687204240,2026-05-20 16:06:19.685,0.037602,0.184953,338.105658,0.001041,-0.011064,0.977636,0.075424,-0.010128,9.918412,-0.003028,0.014256,-0.391875,0.421256,-0.028919,-0.871263,98925.0000
1779273379788285721,2026-05-20 16:06:19.787,0.024737,0.142188,340.340134,-0.002077,-0.012251,0.975872,-0.159745,-0.446303,9.688552,0.009289,-0.003091,-0.396829,0.420746,-0.011996,-0.872856,98931.0000
1779273379887349129,2026-05-20 16:06:19.886,-0.016016,0.166884,342.582048,-0.002583,-0.009884,0.976773,0.083980,-0.243196,9.822849,0.010914,-0.007698,-0.390426,0.419424,0.007708,-0.870896,98928.0000
1779273379987172832,2026-05-20 16:06:19.985,-0.054622,0.232085,344.789581,0.001083,-0.006890,0.978437,0.286888,-0.296610,9.866447,0.006791,-0.009853,-0.383973,0.418915,0.024045,-0.872174,98937.0000
1779273380087383703,2026-05-20 16:06:20.085,-0.062611,0.314304,346.977008,0.004336,-0.002613,0.978577,-0.018536,0.028340,9.791763,-0.001588,-0.013743,-0.382953,0.417203,0.040951,-0.874036,98930.0000
1779273380187388184,2026-05-20 16:06:20.186,-0.025385,0.368381,349.184383,0.010896,-0.002268,0.979702,0.133580,0.071912,9.847112,-0.010618,-0.005229,-0.390721,0.414043,0.059986,-0.874112,98931.0000
1779273380287223295,2026-05-20 16:06:20.285,0.038237,0.365257,351.428401,0.012756,-0.005164,0.980363,0.318794,0.175968,9.899005,-0.011521,0.005865,-0.394671,0.410606,0.078171,-0.872661,98937.0000
1779273380387116314,2026-05-20 16:06:20.385,0.100355,0.320706,353.675412,0.010550,-0.010069,0.980334,0.055339,0.085987,9.725362,-0.006837,0.013433,-0.389100,0.405921,0.097152,-0.874197,98928.0000
1779273380486833184,2026-05-20 16:06:20.485,0.141521,0.266898,355.876351,0.005345,-0.013122,0.979194,0.041605,-0.159309,9.766299,-0.008701,0.006987,-0.376809,0.403073,0.114736,-0.873047,98930.0000
1779273380587281813,2026-05-20 16:06:20.585,0.138549,0.254267,357.992584,0.002216,-0.013729,0.976735,-0.052889,-0.121754,9.754765,0.009098,0.000350,-0.360125,0.396300,0.129591,-0.872631,98933.0000
1779273380686974517,2026-05-20 16:06:20.685,0.107979,0.279396,0.013820,0.003599,-0.012003,0.975360,0.143248,-0.022222,9.840492,0.010116,-0.003167,-0.338950,0.393429,0.146256,-0.872358,98924.0000
1779273380787137221,2026-05-20 16:06:20.785,0.058193,0.268903,1.916251,0.007302,-0.011631,0.977374,0.022933,0.027638,9.713766,0.012906,0.000028,-0.317145,0.388700,0.160160,-0.874371,98928.0000
1779273380888238017,2026-05-20 16:06:20.887,0.018802,0.343815,3.670635,0.004353,-0.005081,0.976845,0.122750,-0.020164,9.740297,0.006834,-0.016176,-0.298180,0.383418,0.172364,-0.873330,98932.0000
