Timestamp,Time,Roll,Pitch,Yaw,Magnetic_Field_X,Magnetic_Field_Y,Magnetic_Field_Z,Angular_Rate_X,Angular_Rate_Y,Angular_Rate_Z,Acceleration_X,Acceleration_Y,Acceleration_Z
1764076214203898651,2025-11-25 18:40:14.178,-1.269000,1.350000,58.039000,0.268400,0.178300,0.135800,0.223000,0.249000,-10.138000,-0.001570,0.002135,-0.006781
1764076214212410928,2025-11-25 18:40:14.207,-1.270000,1.351000,58.033000,0.268300,0.177400,0.134700,0.228000,0.237000,-10.136000,-0.000064,0.000304,-0.005952
1764076214224926336,2025-11-25 18:40:14.220,-1.271000,1.352000,58.024000,0.269400,0.183900,0.137800,0.242000,0.220000,-10.106000,0.000439,-0.000218,-0.004979
1764076214236533058,2025-11-25 18:40:14.232,-1.268000,1.352000,58.016000,0.269200,0.176400,0.140000,0.243000,0.256000,-10.150000,0.001722,-0.000262,-0.004080
1764076214253448669,2025-11-25 18:40:14.248,-1.266000,1.349000,58.005000,0.269200,0.177400,0.140000,0.241000,0.241000,-10.140000,0.002867,-0.001296,-0.004784
1764076214279885428,2025-11-25 18:40:14.274,-1.261000,1.348000,57.999000,0.267600,0.176500,0.160600,0.243000,0.236000,-10.148000,0.004192,-0.000723,-0.005319
1764076214305791076,2025-11-25 18:40:14.300,-1.255000,1.345000,57.989000,0.268300,0.174600,0.137900,0.228000,0.234000,-10.155000,0.004876,-0.002741,-0.005570
1764076214332306465,2025-11-25 18:40:14.328,-1.248000,1.343000,57.980000,0.267500,0.180200,0.138800,0.259000,0.230000,-10.094000,0.005897,-0.002741,-0.005480
1764076214393004780,2025-11-25 18:40:14.390,-1.233000,1.335000,57.962000,0.267500,0.177400,0.145000,0.266000,0.227000,-10.144000,0.006631,-0.002686,-0.006199
1764076214403602947,2025-11-25 18:40:14.401,-1.224000,1.331000,57.950000,0.269200,0.173700,0.142100,0.236000,0.216000,-10.160000,0.007210,-0.003349,-0.005419
1764076214429081058,2025-11-25 18:40:14.425,-1.215000,1.325000,57.941000,0.267500,0.177400,0.139900,0.251000,0.210000,-10.160000,0.005592,-0.003700,-0.006521
1764076214453371299,2025-11-25 18:40:14.450,-1.206000,1.321000,57.932000,0.269500,0.191400,0.137800,0.240000,0.223000,-10.148000,0.006013,-0.003816,-0.005461
1764076214496085261,2025-11-25 18:40:14.492,-1.198000,1.316000,57.922000,0.267500,0.176500,0.138900,0.266000,0.204000,-10.133000,0.005103,-0.003358,-0.005725
1764076214519559836,2025-11-25 18:40:14.508,-1.190000,1.312000,57.915000,0.269200,0.177400,0.131700,0.243000,0.196000,-10.150000,0.005393,-0.003418,-0.005237
1764076214530058428,2025-11-25 18:40:14.527,-1.185000,1.307000,57.907000,0.268400,0.176500,0.143000,0.215000,0.218000,-10.138000,0.003918,-0.004046,-0.005456
1764076214553172965,2025-11-25 18:40:14.548,-1.180000,1.303000,57.899000,0.271000,0.179200,0.136900,0.233000,0.207000,-10.143000,0.003378,-0.002685,-0.005700
1764076214578439224,2025-11-25 18:40:14.575,-1.176000,1.300000,57.890000,0.267600,0.183900,0.137800,0.197000,0.210000,-10.105000,0.001655,-0.001699,-0.005788
1764076214603826817,2025-11-25 18:40:14.601,-1.173000,1.296000,57.879000,0.267400,0.175500,0.139900,0.261000,0.217000,-10.131000,0.001921,-0.002139,-0.005541
1764076214627827891,2025-11-25 18:40:14.624,-1.172000,1.293000,57.871000,0.271000,0.177400,0.144200,0.205000,0.209000,-10.139000,0.000364,-0.001919,-0.004962
1764076214655729947,2025-11-25 18:40:14.650,-1.173000,1.291000,57.863000,0.269200,0.175500,0.143100,0.244000,0.228000,-10.136000,-0.000967,-0.000261,-0.005378
1764076214675010576,2025-11-25 18:40:14.672,-1.174000,1.290000,57.851000,0.266600,0.179300,0.142900,0.229000,0.201000,-10.100000,-0.000864,-0.001036,-0.006351
1764076214701337669,2025-11-25 18:40:14.698,-1.177000,1.290000,57.843000,0.270200,0.178300,0.142100,0.229000,0.218000,-10.127000,-0.002510,0.000364,-0.004756
1764076214727710724,2025-11-25 18:40:14.724,-1.181000,1.292000,57.834000,0.267400,0.174600,0.139900,0.252000,0.190000,-10.133000,-0.002839,0.001225,-0.004196
1764076214749130169,2025-11-25 18:40:14.746,-1.185000,1.292000,57.826000,0.267400,0.173700,0.137800,0.192000,0.239000,-10.139000,-0.003103,0.000554,-0.004819
1764076214778162372,2025-11-25 18:40:14.774,-1.191000,1.294000,57.818000,0.267500,0.179300,0.136800,0.263000,0.225000,-10.150000,-0.005086,0.001566,-0.004405
1764076214800020428,2025-11-25 18:40:14.797,-1.198000,1.297000,57.808000,0.268300,0.177400,0.134800,0.218000,0.216000,-10.133000,-0.005084,0.003531,-0.005893
1764076214824795187,2025-11-25 18:40:14.822,-1.204000,1.299000,57.798000,0.267500,0.180200,0.137800,0.236000,0.202000,-10.123000,-0.004457,0.002422,-0.005505
1764076214851033706,2025-11-25 18:40:14.848,-1.211000,1.303000,57.789000,0.269200,0.177400,0.137900,0.214000,0.196000,-10.139000,-0.003407,0.002718,-0.004368
1764076214874327280,2025-11-25 18:40:14.872,-1.218000,1.307000,57.783000,0.268400,0.179300,0.138900,0.232000,0.199000,-10.162000,-0.003970,0.003900,-0.004375
1764076214900611558,2025-11-25 18:40:14.897,-1.224000,1.312000,57.775000,0.268400,0.180200,0.133700,0.224000,0.221000,-10.169000,-0.004347,0.002945,-0.005345
1764076214926373983,2025-11-25 18:40:14.924,-1.230000,1.316000,57.768000,0.267500,0.180200,0.133600,0.219000,0.243000,-10.130000,-0.002910,0.003884,-0.006076
1764076214949302243,2025-11-25 18:40:14.946,-1.236000,1.321000,57.762000,0.266600,0.179300,0.141900,0.268000,0.212000,-10.150000,-0.003645,0.003157,-0.004170
1764076214977693761,2025-11-25 18:40:14.974,-1.241000,1.325000,57.753000,0.268500,0.182100,0.140900,0.198000,0.237000,-10.151000,-0.002712,0.003866,-0.003985
1764076215002232780,2025-11-25 18:40:14.998,-1.245000,1.329000,57.747000,0.267600,0.183900,0.134700,0.244000,0.219000,-10.146000,-0.001847,0.002931,-0.004040
1764076215319074520,2025-11-25 18:40:15.022,-1.246000,1.334000,57.734000,0.268500,0.183000,0.137800,0.235000,0.243000,-10.157000,0.000150,0.004396,-0.004843
1764076215319467317,2025-11-25 18:40:15.049,-1.248000,1.337000,57.729000,0.267500,0.178300,0.138800,0.255000,0.245000,-10.132000,-0.000478,0.003724,-0.005030
1764076215319699261,2025-11-25 18:40:15.073,-1.248000,1.343000,57.721000,0.265700,0.178400,0.139800,0.244000,0.215000,-10.166000,0.001076,0.002371,-0.005215
1764076215319813687,2025-11-25 18:40:15.102,-1.249000,1.346000,57.714000,0.267500,0.180200,0.138800,0.241000,0.227000,-10.136000,0.001128,0.002959,-0.003822
1764076215319873076,2025-11-25 18:40:15.123,-1.248000,1.349000,57.704000,0.267500,0.179300,0.137800,0.230000,0.231000,-10.161000,0.001440,0.001800,-0.003898
1764076215319923428,2025-11-25 18:40:15.148,-1.246000,1.351000,57.697000,0.268500,0.184900,0.137800,0.244000,0.230000,-10.149000,0.001579,0.002063,-0.005234
1764076215319971835,2025-11-25 18:40:15.173,-1.244000,1.353000,57.685000,0.267400,0.176500,0.131600,0.258000,0.213000,-10.152000,0.001955,0.001128,-0.006121
1764076215320022039,2025-11-25 18:40:15.200,-1.242000,1.355000,57.678000,0.268400,0.179300,0.138900,0.221000,0.209000,-10.119000,0.002398,0.000002,-0.005460
1764076215320835391,2025-11-25 18:40:15.223,-1.238000,1.355000,57.668000,0.267400,0.176500,0.135700,0.259000,0.220000,-10.103000,0.003825,-0.000309,-0.004591
1764076215320941668,2025-11-25 18:40:15.248,-1.234000,1.356000,57.658000,0.267500,0.180200,0.138800,0.228000,0.235000,-10.143000,0.003980,-0.000988,-0.004881
1764076215320993613,2025-11-25 18:40:15.274,-1.231000,1.353000,57.652000,0.267500,0.181100,0.136700,0.250000,0.247000,-10.168000,0.002972,-0.000988,-0.006442
1764076215321045354,2025-11-25 18:40:15.301,-1.227000,1.352000,57.643000,0.267500,0.180200,0.138800,0.264000,0.223000,-10.126000,0.002266,-0.002990,-0.005974
1764076215327725705,2025-11-25 18:40:15.324,-1.223000,1.349000,57.638000,0.269300,0.180200,0.137900,0.205000,0.210000,-10.113000,0.002597,-0.002121,-0.005224
1764076215394722520,2025-11-25 18:40:15.392,-1.216000,1.342000,57.618000,0.264900,0.181200,0.134500,0.239000,0.220000,-10.145000,0.001940,-0.002726,-0.004132
1764076215406146983,2025-11-25 18:40:15.403,-1.214000,1.337000,57.611000,0.268500,0.183000,0.136800,0.245000,0.241000,-10.094000,0.001742,-0.002248,-0.005939
1764076215425844613,2025-11-25 18:40:15.422,-1.212000,1.335000,57.606000,0.268500,0.184800,0.133700,0.249000,0.215000,-10.118000,0.001448,-0.003439,-0.005875
1764076215451831687,2025-11-25 18:40:15.448,-1.211000,1.330000,57.600000,0.267700,0.189500,0.135600,0.229000,0.217000,-10.114000,0.001459,-0.001841,-0.004728
1764076215478436372,2025-11-25 18:40:15.476,-1.208000,1.328000,57.593000,0.266700,0.182100,0.138800,0.241000,0.225000,-10.130000,-0.000078,-0.001920,-0.004768
1764076215502158576,2025-11-25 18:40:15.499,-1.207000,1.323000,57.585000,0.268500,0.184900,0.139900,0.226000,0.222000,-10.138000,0.000852,-0.003360,-0.004868
1764076215526362002,2025-11-25 18:40:15.523,-1.206000,1.319000,57.577000,0.266600,0.178400,0.141900,0.243000,0.193000,-10.121000,0.001032,-0.002225,-0.005293
1764076215551013798,2025-11-25 18:40:15.548,-1.205000,1.317000,57.572000,0.267500,0.180200,0.139900,0.200000,0.206000,-10.120000,0.000497,-0.001466,-0.004943
1764076215579038261,2025-11-25 18:40:15.575,-1.204000,1.314000,57.564000,0.266600,0.178400,0.138800,0.243000,0.198000,-10.100000,0.000533,-0.001499,-0.004384
1764076215604154020,2025-11-25 18:40:15.602,-1.203000,1.313000,57.556000,0.266600,0.178400,0.139800,0.212000,0.191000,-10.138000,0.000554,-0.000507,-0.003949
1764076215626233502,2025-11-25 18:40:15.623,-1.203000,1.311000,57.549000,0.265800,0.178400,0.143900,0.228000,0.199000,-10.132000,-0.000448,0.000445,-0.003652
1764076215650887668,2025-11-25 18:40:15.648,-1.203000,1.311000,57.541000,0.267500,0.180200,0.139900,0.248000,0.222000,-10.119000,0.000562,0.000779,-0.004248
1764076215678077909,2025-11-25 18:40:15.674,-1.204000,1.311000,57.534000,0.267500,0.177400,0.134700,0.220000,0.206000,-10.123000,-0.000375,0.000072,-0.003107
1764076215703307520,2025-11-25 18:40:15.699,-1.205000,1.312000,57.529000,0.266600,0.178300,0.133600,0.232000,0.194000,-10.124000,-0.000450,0.000506,-0.002619
1764076215724635983,2025-11-25 18:40:15.722,-1.206000,1.313000,57.524000,0.267500,0.180200,0.138800,0.187000,0.223000,-10.135000,-0.000535,0.000903,-0.002737
1764076215754269427,2025-11-25 18:40:15.750,-1.207000,1.312000,57.516000,0.267600,0.183000,0.141900,0.249000,0.221000,-10.104000,-0.000350,0.001123,-0.003300
1764076215778954927,2025-11-25 18:40:15.775,-1.209000,1.316000,57.509000,0.265900,0.184000,0.140800,0.223000,0.240000,-10.153000,-0.002434,0.002155,-0.004214
1764076215798988020,2025-11-25 18:40:15.796,-1.212000,1.318000,57.501000,0.268400,0.178300,0.139900,0.225000,0.215000,-10.129000,-0.001549,0.001930,-0.003219
1764076215825988538,2025-11-25 18:40:15.823,-1.213000,1.320000,57.493000,0.268400,0.178300,0.138900,0.235000,0.193000,-10.152000,-0.001148,0.001708,-0.003994
1764076215850639446,2025-11-25 18:40:15.848,-1.216000,1.321000,57.489000,0.267500,0.175600,0.143000,0.214000,0.206000,-10.128000,-0.001309,0.001863,-0.004108
1764076215875489575,2025-11-25 18:40:15.873,-1.217000,1.324000,57.485000,0.268400,0.180200,0.138900,0.243000,0.207000,-10.144000,-0.001464,0.000890,-0.004233
1764076215901655890,2025-11-25 18:40:15.898,-1.220000,1.326000,57.478000,0.267600,0.181100,0.139900,0.224000,0.234000,-10.143000,-0.001378,0.001591,-0.004658
1764076215926383446,2025-11-25 18:40:15.924,-1.223000,1.329000,57.471000,0.265700,0.179300,0.137700,0.227000,0.223000,-10.109000,-0.002005,0.002748,-0.004852
1764076215950384261,2025-11-25 18:40:15.947,-1.226000,1.331000,57.464000,0.265800,0.179300,0.139800,0.231000,0.222000,-10.142000,-0.000537,0.001706,-0.004925
1764076215975548649,2025-11-25 18:40:15.972,-1.229000,1.332000,57.459000,0.268400,0.179200,0.131600,0.260000,0.211000,-10.185000,-0.000855,0.001114,-0.003688
1764076216003735335,2025-11-25 18:40:16.001,-1.231000,1.334000,57.452000,0.268500,0.181200,0.158500,0.236000,0.226000,-10.148000,-0.001214,0.000714,-0.004815
1764076216026445927,2025-11-25 18:40:16.023,-1.233000,1.332000,57.447000,0.266700,0.183000,0.141900,0.259000,0.228000,-10.123000,-0.000830,0.000667,-0.005435
1764076216051279594,2025-11-25 18:40:16.048,-1.235000,1.335000,57.439000,0.268500,0.185800,0.135700,0.252000,0.226000,-10.122000,-0.000793,0.000386,-0.005518
1764076216078032057,2025-11-25 18:40:16.075,-1.237000,1.335000,57.433000,0.265800,0.181200,0.139800,0.240000,0.222000,-10.093000,-0.000584,-0.000079,-0.003134
1764076216103175409,2025-11-25 18:40:16.101,-1.239000,1.333000,57.428000,0.265900,0.181200,0.160400,0.247000,0.240000,-10.137000,-0.000113,-0.000809,-0.004582
1764076216127026168,2025-11-25 18:40:16.124,-1.241000,1.332000,57.419000,0.267600,0.181100,0.139800,0.222000,0.241000,-10.128000,0.000045,-0.002307,-0.003330
1764076216151030149,2025-11-25 18:40:16.148,-1.240000,1.329000,57.410000,0.266700,0.180300,0.160500,0.243000,0.227000,-10.137000,0.000095,-0.000627,-0.004610
1764076216177651946,2025-11-25 18:40:16.174,-1.240000,1.329000,57.402000,0.265700,0.178400,0.138700,0.243000,0.219000,-10.126000,-0.000779,-0.000387,-0.005038
1764076216202781149,2025-11-25 18:40:16.200,-1.241000,1.327000,57.397000,0.267500,0.181100,0.137800,0.245000,0.232000,-10.148000,0.000383,-0.000138,-0.002737
1764076216227886409,2025-11-25 18:40:16.224,-1.238000,1.327000,57.389000,0.269200,0.176400,0.133800,0.254000,0.219000,-10.101000,0.001037,-0.000075,-0.003600
1764076216255076409,2025-11-25 18:40:16.252,-1.237000,1.325000,57.385000,0.265700,0.178400,0.132500,0.226000,0.228000,-10.111000,0.001721,-0.000677,-0.004293
1764076216276991242,2025-11-25 18:40:16.273,-1.234000,1.324000,57.381000,0.266700,0.181100,0.136700,0.245000,0.224000,-10.097000,0.002790,-0.000193,-0.004095
1764076216302356205,2025-11-25 18:40:16.300,-1.231000,1.323000,57.376000,0.264800,0.179300,0.134600,0.218000,0.228000,-10.106000,0.003385,-0.000625,-0.004788
1764076216325978538,2025-11-25 18:40:16.322,-1.227000,1.322000,57.372000,0.266700,0.182100,0.139800,0.242000,0.206000,-10.158000,0.002725,-0.000108,-0.002995
1764076216391699501,2025-11-25 18:40:16.389,-1.221000,1.324000,57.365000,0.267600,0.181100,0.138800,0.252000,0.219000,-10.138000,0.002433,-0.000086,-0.002777
1764076216400904686,2025-11-25 18:40:16.398,-1.217000,1.325000,57.361000,0.266700,0.181200,0.140800,0.225000,0.217000,-10.138000,0.002028,0.000746,-0.003879
1764076216427568705,2025-11-25 18:40:16.424,-1.214000,1.325000,57.359000,0.266600,0.177400,0.141900,0.251000,0.209000,-10.111000,0.001883,0.000852,-0.003606
1764076216452518797,2025-11-25 18:40:16.449,-1.210000,1.327000,57.355000,0.264100,0.183100,0.137600,0.241000,0.194000,-10.129000,0.002774,0.001322,-0.003517
1764076216478155723,2025-11-25 18:40:16.475,-1.208000,1.329000,57.348000,0.265800,0.179300,0.139800,0.222000,0.218000,-10.138000,-0.000069,0.001717,-0.002974
1764076216503346538,2025-11-25 18:40:16.501,-1.206000,1.331000,57.342000,0.266600,0.179300,0.136700,0.265000,0.196000,-10.096000,0.000769,0.000625,-0.003306
1764076216527148964,2025-11-25 18:40:16.524,-1.204000,1.333000,57.334000,0.266900,0.189600,0.141800,0.214000,0.212000,-10.110000,0.000916,0.002403,-0.002452
1764076216551088853,2025-11-25 18:40:16.548,-1.205000,1.336000,57.328000,0.266600,0.177400,0.142900,0.239000,0.178000,-10.124000,-0.000640,0.001750,-0.002976
1764076216579494723,2025-11-25 18:40:16.576,-1.205000,1.338000,57.322000,0.266600,0.176500,0.139800,0.208000,0.219000,-10.152000,-0.000623,0.001975,-0.003430
1764076216603680279,2025-11-25 18:40:16.601,-1.207000,1.339000,57.318000,0.267600,0.181200,0.154300,0.252000,0.218000,-10.118000,-0.001346,0.001023,-0.004088
1764076216627561982,2025-11-25 18:40:16.624,-1.208000,1.342000,57.314000,0.266600,0.180200,0.134600,0.259000,0.200000,-10.155000,-0.001962,-0.000074,-0.004533
1764076216654929945,2025-11-25 18:40:16.651,-1.211000,1.343000,57.309000,0.264900,0.179300,0.140800,0.237000,0.205000,-10.142000,-0.003083,0.000562,-0.003753
1764076216676023742,2025-11-25 18:40:16.673,-1.215000,1.345000,57.305000,0.267600,0.178400,0.160600,0.256000,0.188000,-10.116000,-0.002526,0.000758,-0.003488
1764076216703327742,2025-11-25 18:40:16.700,-1.219000,1.346000,57.303000,0.266700,0.180200,0.140800,0.220000,0.220000,-10.117000,-0.002356,0.000313,-0.002310
1764076216728235538,2025-11-25 18:40:16.724,-1.223000,1.346000,57.299000,0.266600,0.179300,0.140900,0.288000,0.224000,-10.152000,-0.002781,0.000436,-0.004627
1764076216754686334,2025-11-25 18:40:16.751,-1.227000,1.346000,57.294000,0.266900,0.191400,0.138700,0.229000,0.211000,-10.147000,-0.001932,0.000270,-0.004087
1764076216779095353,2025-11-25 18:40:16.776,-1.232000,1.343000,57.290000,0.269300,0.179200,0.136900,0.246000,0.196000,-10.125000,-0.002405,-0.000930,-0.003234
1764076216803649445,2025-11-25 18:40:16.801,-1.236000,1.343000,57.286000,0.265000,0.185900,0.142800,0.255000,0.210000,-10.177000,-0.003127,-0.001910,-0.002855
1764076216828538742,2025-11-25 18:40:16.825,-1.241000,1.340000,57.280000,0.264900,0.180300,0.139700,0.225000,0.266000,-10.142000,-0.002675,-0.001689,-0.002820
1764076216855858167,2025-11-25 18:40:16.853,-1.244000,1.338000,57.275000,0.265800,0.181200,0.142900,0.245000,0.232000,-10.177000,-0.001258,-0.001633,-0.002886
1764076216878448649,2025-11-25 18:40:16.876,-1.248000,1.334000,57.271000,0.265800,0.180200,0.140800,0.216000,0.255000,-10.134000,-0.000871,-0.001270,-0.003932
1764076216901481890,2025-11-25 18:40:16.898,-1.251000,1.331000,57.267000,0.266700,0.182100,0.141900,0.265000,0.225000,-10.147000,-0.000084,-0.002568,-0.003582
1764076216927687927,2025-11-25 18:40:16.924,-1.250000,1.328000,57.262000,0.266600,0.177400,0.139800,0.235000,0.231000,-10.140000,0.000610,-0.000873,-0.002341
1764076216952858297,2025-11-25 18:40:16.949,-1.250000,1.323000,57.258000,0.266000,0.185000,0.157300,0.238000,0.210000,-10.129000,0.001695,-0.002327,-0.002230
1764076216979399112,2025-11-25 18:40:16.977,-1.248000,1.322000,57.250000,0.264900,0.181200,0.139700,0.244000,0.236000,-10.143000,0.002152,-0.003067,-0.003597
1764076217003028223,2025-11-25 18:40:17.000,-1.245000,1.318000,57.244000,0.267500,0.178300,0.138800,0.217000,0.216000,-10.126000,0.003006,-0.001832,-0.004021
1764076217025768334,2025-11-25 18:40:17.023,-1.241000,1.317000,57.240000,0.268500,0.184800,0.135700,0.257000,0.215000,-10.132000,0.004203,-0.001032,-0.002432
1764076217052132778,2025-11-25 18:40:17.049,-1.236000,1.312000,57.235000,0.266700,0.184000,0.141900,0.212000,0.246000,-10.157000,0.003920,-0.001532,-0.002692
1764076217079008778,2025-11-25 18:40:17.076,-1.229000,1.309000,57.230000,0.266700,0.182100,0.136700,0.255000,0.179000,-10.138000,0.005614,-0.001188,-0.002493
1764076217105903297,2025-11-25 18:40:17.102,-1.222000,1.308000,57.227000,0.264900,0.180300,0.137700,0.233000,0.235000,-10.161000,0.005315,-0.000396,-0.003531
1764076217127661204,2025-11-25 18:40:17.124,-1.215000,1.307000,57.225000,0.264900,0.182100,0.137600,0.230000,0.202000,-10.096000,0.004763,0.000266,-0.002123
1764076217153224945,2025-11-25 18:40:17.150,-1.207000,1.306000,57.221000,0.265900,0.180300,0.157300,0.212000,0.209000,-10.134000,0.005155,-0.000613,-0.002308
1764076217179102815,2025-11-25 18:40:17.175,-1.199000,1.305000,57.220000,0.265800,0.182100,0.139800,0.224000,0.206000,-10.136000,0.004849,0.001137,-0.002412
1764076217204298260,2025-11-25 18:40:17.201,-1.192000,1.305000,57.213000,0.267700,0.185800,0.141900,0.204000,0.202000,-10.092000,0.004077,0.000315,-0.003511
1764076217229444482,2025-11-25 18:40:17.226,-1.186000,1.306000,57.208000,0.265800,0.180200,0.137700,0.227000,0.208000,-10.161000,0.002712,0.002290,-0.003084
1764076217255543130,2025-11-25 18:40:17.252,-1.180000,1.310000,57.203000,0.268500,0.184900,0.137800,0.249000,0.166000,-10.129000,0.002344,0.002675,-0.003160
1764076217278381130,2025-11-25 18:40:17.275,-1.175000,1.313000,57.201000,0.267700,0.188600,0.139800,0.217000,0.189000,-10.126000,0.000994,0.002672,-0.003308
1764076217301701315,2025-11-25 18:40:17.299,-1.173000,1.317000,57.196000,0.265700,0.179300,0.138700,0.236000,0.183000,-10.105000,-0.000466,0.004221,-0.001169
1764076217329904871,2025-11-25 18:40:17.326,-1.173000,1.322000,57.194000,0.268400,0.179300,0.149200,0.200000,0.219000,-10.128000,-0.001777,0.003427,-0.003243
1764076217388962056,2025-11-25 18:40:17.386,-1.177000,1.332000,57.186000,0.264100,0.183100,0.138600,0.233000,0.206000,-10.108000,-0.002456,0.003544,-0.002316
1764076217398798482,2025-11-25 18:40:17.396,-1.182000,1.337000,57.179000,0.268500,0.183900,0.136800,0.226000,0.188000,-10.150000,-0.004204,0.003456,-0.001513
1764076217427376908,2025-11-25 18:40:17.424,-1.187000,1.343000,57.177000,0.266700,0.182100,0.136700,0.264000,0.215000,-10.143000,-0.004573,0.003641,-0.002433
1764076217454090871,2025-11-25 18:40:17.451,-1.196000,1.348000,57.174000,0.265000,0.184900,0.139700,0.236000,0.220000,-10.121000,-0.007016,0.002649,-0.003288
1764076217478290241,2025-11-25 18:40:17.475,-1.206000,1.353000,57.171000,0.266800,0.185800,0.138700,0.242000,0.206000,-10.093000,-0.007668,0.002824,-0.002845
1764076217502864760,2025-11-25 18:40:17.500,-1.216000,1.357000,57.167000,0.265800,0.183000,0.136600,0.229000,0.205000,-10.107000,-0.007617,0.002362,-0.002120
1764076217526815537,2025-11-25 18:40:17.524,-1.226000,1.360000,57.166000,0.266700,0.180200,0.140800,0.229000,0.200000,-10.100000,-0.006849,0.001859,-0.001658
1764076217554748926,2025-11-25 18:40:17.550,-1.237000,1.363000,57.161000,0.264000,0.182100,0.138600,0.263000,0.228000,-10.204000,-0.008436,0.002293,-0.002448
1764076217577006426,2025-11-25 18:40:17.574,-1.248000,1.364000,57.157000,0.264900,0.180300,0.140800,0.254000,0.243000,-10.139000,-0.007848,0.000777,-0.003050
1764076217602573686,2025-11-25 18:40:17.600,-1.258000,1.366000,57.155000,0.264000,0.182100,0.138600,0.258000,0.222000,-10.163000,-0.006102,0.000493,-0.002335
1764076217627055723,2025-11-25 18:40:17.624,-1.267000,1.366000,57.150000,0.264000,0.180300,0.134500,0.224000,0.242000,-10.137000,-0.005874,-0.000488,-0.001560
1764076217652596408,2025-11-25 18:40:17.649,-1.273000,1.366000,57.147000,0.265900,0.185800,0.139700,0.274000,0.206000,-10.132000,-0.003267,-0.001977,-0.001211
1764076217676117260,2025-11-25 18:40:17.673,-1.280000,1.365000,57.146000,0.265000,0.182200,0.159400,0.223000,0.268000,-10.150000,-0.003753,-0.002427,-0.001303
1764076217703023556,2025-11-25 18:40:17.700,-1.284000,1.362000,57.143000,0.265700,0.177400,0.137700,0.246000,0.229000,-10.155000,-0.002409,-0.002178,-0.002920
1764076217727190130,2025-11-25 18:40:17.724,-1.286000,1.359000,57.137000,0.265900,0.186800,0.137600,0.240000,0.238000,-10.145000,-0.000561,-0.003054,-0.002311
1764076217754005648,2025-11-25 18:40:17.750,-1.288000,1.354000,57.134000,0.265900,0.186800,0.138700,0.241000,0.244000,-10.105000,0.000718,-0.003111,-0.000955
1764076217777642741,2025-11-25 18:40:17.775,-1.285000,1.350000,57.134000,0.265800,0.179300,0.139800,0.250000,0.252000,-10.153000,0.002532,-0.003361,-0.002015
1764076217801517000,2025-11-25 18:40:17.799,-1.281000,1.344000,57.132000,0.266700,0.183000,0.138800,0.236000,0.252000,-10.159000,0.004531,-0.003974,-0.002203
1764076217827451908,2025-11-25 18:40:17.824,-1.274000,1.339000,57.127000,0.264900,0.181200,0.137600,0.261000,0.258000,-10.127000,0.005806,-0.003914,-0.001865
1764076217853992648,2025-11-25 18:40:17.851,-1.265000,1.333000,57.124000,0.266600,0.176500,0.141900,0.235000,0.229000,-10.157000,0.006950,-0.003450,-0.002457
1764076217879347945,2025-11-25 18:40:17.877,-1.255000,1.327000,57.119000,0.264900,0.179300,0.138700,0.250000,0.220000,-10.131000,0.007074,-0.004204,-0.001055
1764076217901524908,2025-11-25 18:40:17.898,-1.243000,1.321000,57.118000,0.266600,0.179300,0.141900,0.209000,0.233000,-10.120000,0.008568,-0.003300,-0.001801
1764076217926747482,2025-11-25 18:40:17.923,-1.231000,1.315000,57.116000,0.266800,0.186800,0.143900,0.235000,0.238000,-10.176000,0.010002,-0.003098,-0.003043
1764076217953660259,2025-11-25 18:40:17.950,-1.218000,1.311000,57.111000,0.267600,0.182100,0.142900,0.192000,0.236000,-10.165000,0.009243,-0.003405,-0.003070
1764076217978586704,2025-11-25 18:40:17.976,-1.205000,1.306000,57.105000,0.265000,0.184900,0.137600,0.213000,0.195000,-10.108000,0.009006,-0.000986,-0.001709
1764076218002299333,2025-11-25 18:40:17.999,-1.192000,1.305000,57.099000,0.265900,0.184000,0.159400,0.237000,0.192000,-10.106000,0.008559,-0.000293,-0.001473
1764076218026687370,2025-11-25 18:40:18.023,-1.179000,1.302000,57.095000,0.267600,0.182100,0.139800,0.217000,0.209000,-10.119000,0.008256,-0.000254,-0.001582
1764076218055140593,2025-11-25 18:40:18.052,-1.169000,1.301000,57.093000,0.267700,0.187700,0.137700,0.245000,0.189000,-10.098000,0.006377,-0.001014,-0.002336
1764076218078800407,2025-11-25 18:40:18.075,-1.159000,1.302000,57.089000,0.264900,0.180300,0.139700,0.222000,0.213000,-10.111000,0.005023,0.001380,-0.001470
1764076218103355945,2025-11-25 18:40:18.100,-1.152000,1.302000,57.089000,0.266700,0.181200,0.137700,0.216000,0.163000,-10.142000,0.003937,0.001472,-0.002998
1764076218126640445,2025-11-25 18:40:18.124,-1.147000,1.305000,57.088000,0.265000,0.188600,0.128300,0.203000,0.210000,-10.095000,0.003174,0.002642,-0.001074
1764076218151998926,2025-11-25 18:40:18.149,-1.145000,1.308000,57.086000,0.266600,0.180200,0.130500,0.224000,0.188000,-10.147000,0.001117,0.001946,-0.002427
1764076218178169944,2025-11-25 18:40:18.174,-1.144000,1.313000,57.084000,0.266700,0.181100,0.135700,0.266000,0.168000,-10.117000,-0.001314,0.002420,-0.001885
1764076218203955315,2025-11-25 18:40:18.201,-1.147000,1.316000,57.081000,0.264900,0.182100,0.135600,0.199000,0.177000,-10.132000,-0.003193,0.002051,-0.002166
1764076218228449889,2025-11-25 18:40:18.225,-1.152000,1.321000,57.080000,0.267600,0.183900,0.141900,0.254000,0.166000,-10.081000,-0.005402,0.002762,-0.001307
1764076218251348796,2025-11-25 18:40:18.249,-1.159000,1.326000,57.074000,0.265000,0.184900,0.138600,0.203000,0.222000,-10.095000,-0.007036,0.003813,-0.000977
1764076218278266000,2025-11-25 18:40:18.275,-1.168000,1.330000,57.072000,0.265000,0.184000,0.140700,0.238000,0.184000,-10.115000,-0.005827,0.002554,-0.001294
1764076218303486907,2025-11-25 18:40:18.301,-1.178000,1.335000,57.073000,0.264900,0.181200,0.138700,0.231000,0.204000,-10.172000,-0.007547,0.002603,-0.002297
1764076218327205352,2025-11-25 18:40:18.324,-1.189000,1.339000,57.069000,0.264000,0.182100,0.139700,0.223000,0.201000,-10.129000,-0.009749,0.001975,-0.001636
1764076218392649055,2025-11-25 18:40:18.390,-1.213000,1.344000,57.066000,0.263100,0.178400,0.135500,0.250000,0.214000,-10.149000,-0.008956,0.001917,-0.001565
1764076218402752741,2025-11-25 18:40:18.400,-1.225000,1.348000,57.061000,0.268400,0.180200,0.139900,0.265000,0.219000,-10.162000,-0.008036,0.001764,-0.000634
1764076218429052704,2025-11-25 18:40:18.425,-1.236000,1.349000,57.058000,0.264800,0.177500,0.139700,0.220000,0.246000,-10.136000,-0.007666,0.000941,-0.001709
1764076218452105741,2025-11-25 18:40:18.448,-1.247000,1.350000,57.057000,0.266700,0.182100,0.135700,0.273000,0.244000,-10.130000,-0.006376,0.000375,-0.000671
1764076218478286518,2025-11-25 18:40:18.475,-1.257000,1.351000,57.057000,0.265800,0.183000,0.138700,0.235000,0.251000,-10.143000,-0.006148,0.000109,-0.001256
1764076218503350592,2025-11-25 18:40:18.500,-1.267000,1.351000,57.055000,0.266800,0.187700,0.137700,0.269000,0.263000,-10.126000,-0.004324,-0.000230,-0.000390
1764076218527137407,2025-11-25 18:40:18.524,-1.274000,1.351000,57.053000,0.264900,0.181200,0.139700,0.242000,0.238000,-10.155000,-0.003153,-0.002274,-0.000652
1764076218551733500,2025-11-25 18:40:18.548,-1.280000,1.348000,57.051000,0.264100,0.186800,0.136500,0.238000,0.223000,-10.127000,-0.001329,-0.001892,-0.000963
1764076218579085074,2025-11-25 18:40:18.576,-1.283000,1.347000,57.050000,0.264200,0.188700,0.136500,0.259000,0.247000,-10.137000,-0.000195,-0.002017,-0.001528
1764076218603990611,2025-11-25 18:40:18.601,-1.285000,1.344000,57.050000,0.267000,0.196100,0.135600,0.192000,0.255000,-10.103000,0.000067,-0.001704,-0.001176
1764076218629885129,2025-11-25 18:40:18.626,-1.283000,1.342000,57.047000,0.265700,0.178400,0.139800,0.276000,0.254000,-10.154000,0.002657,-0.002413,-0.001179
1764076218652077481,2025-11-25 18:40:18.649,-1.281000,1.339000,57.044000,0.263200,0.181200,0.141700,0.175000,0.255000,-10.171000,0.003155,-0.002270,-0.000941
1764076218677417185,2025-11-25 18:40:18.675,-1.276000,1.337000,57.040000,0.265700,0.176500,0.135700,0.253000,0.217000,-10.107000,0.004462,-0.001352,-0.002409
1764076218703155518,2025-11-25 18:40:18.699,-1.270000,1.335000,57.038000,0.267900,0.196100,0.137700,0.253000,0.231000,-10.153000,0.004476,-0.001484,-0.002550
1764076218728460500,2025-11-25 18:40:18.725,-1.264000,1.332000,57.035000,0.265800,0.180300,0.154300,0.232000,0.236000,-10.117000,0.005732,-0.001883,-0.001376
1764076218754703166,2025-11-25 18:40:18.751,-1.256000,1.332000,57.033000,0.264900,0.181200,0.140700,0.244000,0.210000,-10.168000,0.004439,-0.000198,-0.000647
1764076218777863648,2025-11-25 18:40:18.775,-1.247000,1.330000,57.031000,0.266600,0.178400,0.138800,0.211000,0.231000,-10.129000,0.006933,-0.001725,-0.002303
1764076218801344666,2025-11-25 18:40:18.798,-1.238000,1.330000,57.030000,0.264100,0.182200,0.145900,0.235000,0.195000,-10.108000,0.005979,0.000320,-0.000402
1764076218826655629,2025-11-25 18:40:18.823,-1.230000,1.331000,57.029000,0.265800,0.181200,0.139800,0.187000,0.212000,-10.115000,0.004471,0.000198,-0.000858
1764076218852582407,2025-11-25 18:40:18.849,-1.221000,1.330000,57.030000,0.265900,0.187700,0.136600,0.242000,0.201000,-10.137000,0.005999,0.001458,-0.000447
1764076218878270518,2025-11-25 18:40:18.875,-1.214000,1.331000,57.028000,0.265800,0.181200,0.137700,0.219000,0.204000,-10.171000,0.003977,0.001315,0.000068
1764076218902702500,2025-11-25 18:40:18.900,-1.209000,1.331000,57.027000,0.264800,0.178400,0.139700,0.230000,0.221000,-10.140000,0.003736,0.001405,-0.001098
1764076218926620388,2025-11-25 18:40:18.924,-1.203000,1.335000,57.025000,0.265800,0.181200,0.135600,0.227000,0.184000,-10.117000,0.002738,0.002757,0.000103
1764076218952505092,2025-11-25 18:40:18.948,-1.199000,1.335000,57.025000,0.266800,0.184000,0.143900,0.242000,0.200000,-10.115000,0.002898,0.000926,-0.000328
1764076218978789111,2025-11-25 18:40:18.976,-1.195000,1.338000,57.025000,0.265800,0.183000,0.141800,0.225000,0.198000,-10.154000,0.000320,0.000681,0.000606
1764076219003099722,2025-11-25 18:40:19.000,-1.194000,1.339000,57.024000,0.266900,0.191400,0.139700,0.195000,0.213000,-10.138000,-0.000149,0.000416,-0.001631
1764076219026728407,2025-11-25 18:40:19.023,-1.194000,1.340000,57.022000,0.268500,0.182100,0.142000,0.247000,0.206000,-10.110000,-0.000647,0.001005,-0.001532
1764076219055663092,2025-11-25 18:40:19.052,-1.194000,1.341000,57.022000,0.266600,0.177400,0.138800,0.235000,0.213000,-10.103000,-0.001069,-0.000439,0.000492
1764076219078103518,2025-11-25 18:40:19.075,-1.197000,1.342000,57.022000,0.266700,0.182100,0.142900,0.262000,0.193000,-10.098000,-0.002061,-0.000116,0.000529
1764076219103472111,2025-11-25 18:40:19.100,-1.200000,1.343000,57.022000,0.265800,0.180200,0.140800,0.244000,0.234000,-10.131000,-0.002381,-0.000630,0.000233
1764076219126966185,2025-11-25 18:40:19.124,-1.203000,1.344000,57.020000,0.264000,0.179400,0.141800,0.235000,0.221000,-10.131000,-0.002797,0.000374,-0.000763
1764076219149602685,2025-11-25 18:40:19.147,-1.207000,1.344000,57.019000,0.265800,0.178500,0.163600,0.256000,0.226000,-10.130000,-0.002503,0.000377,-0.001272
1764076219178861203,2025-11-25 18:40:19.176,-1.212000,1.343000,57.018000,0.266700,0.184900,0.133600,0.217000,0.217000,-10.109000,-0.002575,-0.000148,-0.001385
1764076219203188148,2025-11-25 18:40:19.200,-1.215000,1.343000,57.015000,0.265900,0.187700,0.140700,0.239000,0.213000,-10.125000,-0.002378,-0.000066,-0.000595
1764076219228018814,2025-11-25 18:40:19.224,-1.218000,1.340000,57.015000,0.264900,0.181200,0.139700,0.224000,0.223000,-10.147000,-0.002042,-0.000560,-0.000248
1764076219256458314,2025-11-25 18:40:19.254,-1.221000,1.339000,57.012000,0.265800,0.182100,0.139700,0.266000,0.214000,-10.119000,-0.001196,-0.001126,-0.001280
1764076219277791499,2025-11-25 18:40:19.274,-1.223000,1.337000,57.008000,0.264000,0.181200,0.136600,0.207000,0.229000,-10.126000,-0.000360,-0.001501,-0.000934
1764076219302620073,2025-11-25 18:40:19.300,-1.225000,1.333000,57.006000,0.265800,0.184000,0.138700,0.224000,0.207000,-10.142000,-0.001461,-0.002335,-0.000450
1764076219326688999,2025-11-25 18:40:19.323,-1.225000,1.331000,57.006000,0.266700,0.183000,0.137700,0.235000,0.220000,-10.113000,-0.000228,-0.002181,-0.001996
1764076219392166888,2025-11-25 18:40:19.390,-1.226000,1.325000,57.000000,0.264900,0.180300,0.139700,0.244000,0.230000,-10.134000,-0.000150,-0.001026,0.000122
1764076219401358740,2025-11-25 18:40:19.399,-1.227000,1.321000,57.001000,0.264900,0.183100,0.138700,0.218000,0.217000,-10.131000,0.001603,-0.002127,-0.000076
1764076219426357110,2025-11-25 18:40:19.423,-1.226000,1.319000,56.999000,0.264900,0.181200,0.139700,0.265000,0.198000,-10.156000,0.002849,-0.001228,0.001281
1764076219452790666,2025-11-25 18:40:19.449,-1.224000,1.318000,56.999000,0.264100,0.184900,0.139600,0.205000,0.205000,-10.128000,0.001434,0.000240,-0.000163
1764076219478751629,2025-11-25 18:40:19.476,-1.223000,1.316000,56.999000,0.265800,0.181200,0.139800,0.226000,0.208000,-10.170000,0.001310,-0.001144,-0.000775
1764076219503323110,2025-11-25 18:40:19.501,-1.221000,1.317000,56.997000,0.268400,0.180200,0.139900,0.227000,0.237000,-10.128000,0.001082,0.000751,-0.000187
1764076219527056703,2025-11-25 18:40:19.524,-1.221000,1.316000,56.998000,0.264900,0.181200,0.137600,0.236000,0.193000,-10.128000,0.001220,0.001106,-0.000200
1764076219550930147,2025-11-25 18:40:19.548,-1.220000,1.319000,56.995000,0.263100,0.181200,0.134400,0.233000,0.206000,-10.098000,0.000133,0.000929,0.000998
1764076219579456055,2025-11-25 18:40:19.576,-1.220000,1.319000,56.996000,0.264800,0.177500,0.138700,0.210000,0.232000,-10.137000,-0.000300,0.001923,0.000495
1764076219602312295,2025-11-25 18:40:19.600,-1.221000,1.320000,56.997000,0.265800,0.182100,0.136600,0.228000,0.202000,-10.158000,-0.001061,0.000877,-0.000217
1764076219625349740,2025-11-25 18:40:19.622,-1.221000,1.323000,56.996000,0.265800,0.182100,0.137700,0.198000,0.230000,-10.151000,-0.001380,0.002685,-0.000040
1764076219650841073,2025-11-25 18:40:19.648,-1.223000,1.326000,56.998000,0.265800,0.182100,0.132500,0.263000,0.190000,-10.151000,-0.002180,0.002161,0.000501
1764076219678988536,2025-11-25 18:40:19.676,-1.224000,1.331000,56.998000,0.265900,0.185800,0.136600,0.237000,0.209000,-10.111000,-0.001989,0.002512,0.002093
1764076219703441240,2025-11-25 18:40:19.701,-1.227000,1.333000,57.000000,0.265800,0.181200,0.137700,0.238000,0.221000,-10.146000,-0.002031,0.002386,0.000368
1764076219727826592,2025-11-25 18:40:19.725,-1.229000,1.338000,57.003000,0.265800,0.181200,0.138700,0.230000,0.220000,-10.092000,-0.002034,0.001852,-0.000371
1764076219754387481,2025-11-25 18:40:19.751,-1.234000,1.343000,57.001000,0.264100,0.183100,0.138600,0.230000,0.212000,-10.114000,-0.002982,0.002657,0.000246
1764076219777223703,2025-11-25 18:40:19.774,-1.239000,1.349000,57.003000,0.266600,0.178400,0.138800,0.268000,0.194000,-10.121000,-0.002628,0.003648,-0.000353
1764076219801597147,2025-11-25 18:40:19.799,-1.241000,1.353000,57.001000,0.265800,0.184000,0.137700,0.239000,0.219000,-10.154000,-0.001198,0.002451,-0.000507
1764076219826326184,2025-11-25 18:40:19.823,-1.244000,1.356000,56.999000,0.265800,0.184000,0.139700,0.269000,0.196000,-10.166000,-0.002250,0.001438,-0.001086
1764076219851003610,2025-11-25 18:40:19.848,-1.247000,1.361000,56.996000,0.264800,0.178400,0.139700,0.232000,0.226000,-10.166000,-0.001833,0.002261,-0.000467
1764076219877420943,2025-11-25 18:40:19.874,-1.249000,1.363000,56.994000,0.264100,0.185900,0.139600,0.250000,0.214000,-10.158000,-0.001246,0.000930,-0.000684
1764076219902952480,2025-11-25 18:40:19.900,-1.249000,1.365000,56.991000,0.264900,0.179300,0.139700,0.251000,0.210000,-10.136000,-0.000271,0.000217,-0.001276
1764076219927521184,2025-11-25 18:40:19.924,-1.250000,1.366000,56.990000,0.265000,0.184000,0.145900,0.245000,0.233000,-10.132000,-0.000588,0.000306,-0.000199
1764076219952559462,2025-11-25 18:40:19.949,-1.250000,1.367000,56.988000,0.264900,0.179300,0.139700,0.265000,0.218000,-10.137000,0.000968,-0.000449,-0.000017
1764076219978024814,2025-11-25 18:40:19.975,-1.249000,1.365000,56.987000,0.264200,0.187700,0.138600,0.236000,0.238000,-10.139000,0.001662,-0.001712,-0.000207
1764076220003169221,2025-11-25 18:40:20.000,-1.248000,1.364000,56.984000,0.264000,0.183100,0.136500,0.280000,0.199000,-10.137000,0.002095,-0.002020,-0.001699
1764076220027153554,2025-11-25 18:40:20.024,-1.245000,1.361000,56.984000,0.264100,0.183100,0.138600,0.222000,0.242000,-10.123000,0.001366,-0.002655,-0.000882
1764076220051755332,2025-11-25 18:40:20.048,-1.241000,1.356000,56.982000,0.266700,0.182100,0.139800,0.264000,0.232000,-10.131000,0.004176,-0.003838,0.000130
1764076220078072536,2025-11-25 18:40:20.075,-1.236000,1.352000,56.982000,0.264000,0.181200,0.139700,0.232000,0.243000,-10.138000,0.003513,-0.003610,-0.001071
1764076220102796369,2025-11-25 18:40:20.100,-1.230000,1.346000,56.981000,0.264000,0.181200,0.137600,0.238000,0.237000,-10.122000,0.004456,-0.003803,-0.000437
1764076220126495073,2025-11-25 18:40:20.124,-1.225000,1.340000,56.981000,0.265000,0.184000,0.139700,0.232000,0.214000,-10.138000,0.003740,-0.005175,-0.000205
1764076220151050054,2025-11-25 18:40:20.148,-1.219000,1.333000,56.979000,0.265800,0.183000,0.142800,0.219000,0.229000,-10.149000,0.003958,-0.004051,-0.000633
1764076220178159777,2025-11-25 18:40:20.175,-1.212000,1.326000,56.978000,0.264900,0.179300,0.141800,0.241000,0.206000,-10.126000,0.005013,-0.003763,0.000370
1764076220203021165,2025-11-25 18:40:20.200,-1.207000,1.320000,56.980000,0.266700,0.183000,0.140800,0.202000,0.238000,-10.131000,0.004294,-0.004879,-0.000708
1764076220226539462,2025-11-25 18:40:20.223,-1.203000,1.313000,56.980000,0.266600,0.179300,0.139800,0.240000,0.201000,-10.111000,0.003119,-0.003290,0.001368
1764076220250903277,2025-11-25 18:40:20.248,-1.198000,1.307000,56.979000,0.266600,0.179300,0.137700,0.209000,0.196000,-10.133000,0.002328,-0.004684,0.000145
1764076220275941758,2025-11-25 18:40:20.273,-1.193000,1.300000,56.976000,0.265000,0.187700,0.136600,0.210000,0.198000,-10.131000,0.001355,-0.002302,0.000901
1764076220305631406,2025-11-25 18:40:20.302,-1.189000,1.297000,56.975000,0.265700,0.176500,0.139800,0.220000,0.202000,-10.131000,0.000738,-0.001345,0.000563
1764076220328211332,2025-11-25 18:40:20.325,-1.187000,1.292000,56.975000,0.267500,0.181100,0.133600,0.182000,0.225000,-10.121000,0.000134,-0.001027,-0.000436
1764076220390697462,2025-11-25 18:40:20.388,-1.189000,1.289000,56.980000,0.264200,0.188700,0.139600,0.198000,0.198000,-10.131000,-0.001054,-0.000295,0.001058
1764076220399941054,2025-11-25 18:40:20.397,-1.191000,1.289000,56.978000,0.264900,0.180300,0.138700,0.236000,0.170000,-10.099000,-0.001190,0.001279,0.000694
1764076220426902276,2025-11-25 18:40:20.424,-1.193000,1.289000,56.978000,0.264000,0.182100,0.137600,0.202000,0.232000,-10.134000,-0.002300,0.001654,0.001578
1764076220454039480,2025-11-25 18:40:20.450,-1.199000,1.290000,56.978000,0.266700,0.184900,0.135600,0.221000,0.231000,-10.139000,-0.003263,0.002165,-0.000703
1764076220478151332,2025-11-25 18:40:20.474,-1.203000,1.295000,56.975000,0.265900,0.182200,0.155300,0.248000,0.210000,-10.101000,-0.004606,0.003289,-0.000551
1764076220505451110,2025-11-25 18:40:20.503,-1.209000,1.299000,56.974000,0.265900,0.184900,0.136600,0.211000,0.213000,-10.092000,-0.004653,0.004133,0.001038
1764076220525582795,2025-11-25 18:40:20.522,-1.215000,1.305000,56.973000,0.265900,0.185800,0.141800,0.236000,0.210000,-10.104000,-0.004006,0.003919,0.001607
1764076220551500110,2025-11-25 18:40:20.548,-1.222000,1.310000,56.974000,0.264200,0.184100,0.157200,0.216000,0.242000,-10.142000,-0.004573,0.004340,0.000220
1764076220575500480,2025-11-25 18:40:20.572,-1.229000,1.316000,56.973000,0.265800,0.183000,0.135600,0.238000,0.218000,-10.110000,-0.003597,0.003822,-0.000705
1764076220600322443,2025-11-25 18:40:20.597,-1.235000,1.323000,56.974000,0.266600,0.179300,0.141900,0.220000,0.230000,-10.143000,-0.003537,0.004655,-0.000693
1764076220627310554,2025-11-25 18:40:20.625,-1.241000,1.328000,56.975000,0.264900,0.180300,0.139700,0.239000,0.224000,-10.171000,-0.003776,0.005935,-0.000735
1764076220651202554,2025-11-25 18:40:20.648,-1.245000,1.335000,56.973000,0.265800,0.181200,0.136700,0.229000,0.214000,-10.111000,-0.001661,0.003019,0.000820
1764076220678774424,2025-11-25 18:40:20.676,-1.250000,1.341000,56.973000,0.265900,0.186800,0.139700,0.238000,0.261000,-10.110000,-0.001537,0.004931,-0.000890
1764076220703069554,2025-11-25 18:40:20.700,-1.253000,1.349000,56.970000,0.265700,0.178400,0.138700,0.248000,0.230000,-10.118000,-0.001579,0.002754,0.000689
1764076220727689443,2025-11-25 18:40:20.724,-1.254000,1.352000,56.968000,0.265800,0.180200,0.137700,0.241000,0.245000,-10.185000,-0.001060,0.001579,-0.000253
1764076220754862628,2025-11-25 18:40:20.752,-1.255000,1.357000,56.971000,0.265800,0.182100,0.140800,0.258000,0.216000,-10.132000,-0.000128,0.002512,-0.000170
1764076220776977480,2025-11-25 18:40:20.774,-1.255000,1.360000,56.968000,0.265800,0.184000,0.138700,0.221000,0.251000,-10.181000,0.001009,0.001093,0.000466
1764076220802721887,2025-11-25 18:40:20.800,-1.253000,1.362000,56.969000,0.264800,0.178400,0.138700,0.240000,0.258000,-10.145000,0.001626,0.001330,0.000729
1764076220827259943,2025-11-25 18:40:20.824,-1.251000,1.364000,56.969000,0.265800,0.183000,0.138700,0.214000,0.225000,-10.139000,0.002156,-0.000951,-0.000123
1764076220851506869,2025-11-25 18:40:20.848,-1.246000,1.362000,56.970000,0.263100,0.182100,0.134400,0.257000,0.210000,-10.126000,0.002988,-0.001144,0.002135
1764076220877146758,2025-11-25 18:40:20.874,-1.240000,1.361000,56.970000,0.266000,0.194200,0.135500,0.258000,0.218000,-10.158000,0.003988,-0.002176,0.001089
1764076220901869276,2025-11-25 18:40:20.899,-1.234000,1.358000,56.972000,0.264100,0.184000,0.139600,0.217000,0.226000,-10.168000,0.003889,-0.003188,0.001398
1764076220925324202,2025-11-25 18:40:20.922,-1.229000,1.354000,56.977000,0.265700,0.179300,0.134600,0.275000,0.231000,-10.156000,0.003537,-0.003252,0.000817
1764076220952154739,2025-11-25 18:40:20.949,-1.223000,1.349000,56.981000,0.265700,0.180200,0.134600,0.219000,0.235000,-10.114000,0.003631,-0.004191,0.000443
1764076220977290628,2025-11-25 18:40:20.974,-1.218000,1.343000,56.986000,0.264900,0.182100,0.138700,0.284000,0.202000,-10.157000,0.002601,-0.005236,0.000843
1764076221002350461,2025-11-25 18:40:21.000,-1.213000,1.338000,56.988000,0.266600,0.180200,0.138800,0.235000,0.240000,-10.166000,0.002654,-0.005530,0.002901
1764076221026211684,2025-11-25 18:40:21.023,-1.210000,1.329000,56.991000,0.265800,0.182100,0.137700,0.219000,0.224000,-10.152000,0.002366,-0.004543,0.001167
1764076221052234906,2025-11-25 18:40:21.049,-1.206000,1.323000,56.991000,0.264900,0.182100,0.136600,0.222000,0.205000,-10.160000,0.001425,-0.004477,0.000583
1764076221078151424,2025-11-25 18:40:21.075,-1.204000,1.316000,56.989000,0.264900,0.182100,0.139700,0.226000,0.217000,-10.133000,0.002326,-0.003037,0.001135
1764076221103110646,2025-11-25 18:40:21.100,-1.202000,1.310000,56.991000,0.265800,0.179300,0.140800,0.239000,0.208000,-10.120000,0.000977,-0.004800,0.001602
1764076221129458480,2025-11-25 18:40:21.126,-1.200000,1.303000,56.989000,0.265900,0.184900,0.139700,0.218000,0.215000,-10.149000,-0.000219,-0.003531,0.001542
1764076221152648443,2025-11-25 18:40:21.150,-1.201000,1.299000,56.990000,0.264100,0.183100,0.137600,0.239000,0.211000,-10.130000,-0.001444,-0.002463,0.001251
1764076221177393832,2025-11-25 18:40:21.174,-1.202000,1.296000,56.992000,0.265800,0.182100,0.138700,0.200000,0.221000,-10.100000,-0.001286,-0.001201,-0.000648
1764076221202159572,2025-11-25 18:40:21.199,-1.205000,1.290000,56.994000,0.265800,0.181200,0.140800,0.231000,0.216000,-10.151000,-0.002314,-0.001228,0.000654
1764076221226750795,2025-11-25 18:40:21.224,-1.206000,1.288000,56.997000,0.267600,0.183900,0.141900,0.216000,0.207000,-10.125000,-0.002781,-0.001102,0.001184
1764076221249770776,2025-11-25 18:40:21.247,-1.211000,1.286000,56.997000,0.267700,0.188600,0.140800,0.227000,0.214000,-10.108000,-0.002970,0.000686,0.000903
1764076221276320257,2025-11-25 18:40:21.274,-1.216000,1.287000,56.997000,0.268500,0.182100,0.140900,0.224000,0.204000,-10.137000,-0.003632,0.000674,0.000251
1764076221301761998,2025-11-25 18:40:21.299,-1.222000,1.288000,56.998000,0.264900,0.179300,0.140800,0.205000,0.233000,-10.112000,-0.005190,0.001353,0.000591
1764076221325972480,2025-11-25 18:40:21.323,-1.226000,1.290000,56.998000,0.266700,0.182100,0.141900,0.254000,0.185000,-10.105000,-0.003653,0.001319,0.000568
1764076221393274220,2025-11-25 18:40:21.391,-1.232000,1.295000,56.997000,0.265800,0.183000,0.142800,0.244000,0.230000,-10.127000,-0.002338,0.003261,0.000130
1764076221403400739,2025-11-25 18:40:21.401,-1.236000,1.300000,56.998000,0.266700,0.181200,0.140800,0.209000,0.226000,-10.113000,-0.002227,0.002940,-0.000097
1764076221428226794,2025-11-25 18:40:21.425,-1.239000,1.304000,56.999000,0.264100,0.180300,0.159300,0.224000,0.246000,-10.073000,0.000073,0.004063,0.000404
1764076221452932294,2025-11-25 18:40:21.449,-1.241000,1.310000,56.995000,0.265000,0.182200,0.160400,0.264000,0.220000,-10.141000,-0.002022,0.003578,-0.000223
1764076221478974461,2025-11-25 18:40:21.476,-1.243000,1.316000,56.995000,0.265000,0.185900,0.138600,0.211000,0.230000,-10.151000,-0.000862,0.003211,0.000967
1764076221501842294,2025-11-25 18:40:21.499,-1.245000,1.322000,56.992000,0.265800,0.182100,0.137700,0.255000,0.205000,-10.120000,-0.000436,0.003405,0.000613
1764076221525797739,2025-11-25 18:40:21.523,-1.246000,1.328000,56.989000,0.265800,0.182100,0.140800,0.210000,0.241000,-10.084000,-0.000603,0.003908,-0.000026
1764076221551383683,2025-11-25 18:40:21.548,-1.244000,1.332000,56.991000,0.265000,0.185900,0.139700,0.250000,0.213000,-10.162000,0.001489,0.002605,0.000050
1764076221578885387,2025-11-25 18:40:21.576,-1.242000,1.336000,56.990000,0.264100,0.186800,0.137500,0.210000,0.228000,-10.113000,0.001227,0.002866,0.001116
1764076221601801165,2025-11-25 18:40:21.599,-1.240000,1.339000,56.991000,0.265800,0.183000,0.136600,0.270000,0.239000,-10.139000,0.002276,0.001882,0.002225
1764076221629629591,2025-11-25 18:40:21.627,-1.237000,1.344000,56.994000,0.264000,0.183100,0.137600,0.258000,0.233000,-10.135000,0.001263,0.000629,0.001541
1764076221653691665,2025-11-25 18:40:21.650,-1.234000,1.346000,56.993000,0.266800,0.188600,0.137700,0.231000,0.232000,-10.118000,0.002215,0.002193,0.000547
1764076221678245905,2025-11-25 18:40:21.675,-1.230000,1.348000,56.994000,0.265800,0.184000,0.135600,0.279000,0.217000,-10.135000,0.002622,0.001994,0.001269
1764076221702548220,2025-11-25 18:40:21.699,-1.226000,1.349000,56.998000,0.264100,0.184000,0.139600,0.224000,0.236000,-10.129000,0.002959,0.000324,0.003509
1764076221728417924,2025-11-25 18:40:21.724,-1.222000,1.350000,56.997000,0.265000,0.184900,0.137600,0.244000,0.194000,-10.143000,0.003315,-0.000631,0.002615
1764076221752588220,2025-11-25 18:40:21.749,-1.217000,1.351000,57.001000,0.266700,0.183000,0.140800,0.222000,0.233000,-10.135000,0.002277,-0.000396,0.001180
1764076221777361053,2025-11-25 18:40:21.774,-1.213000,1.349000,57.004000,0.266600,0.180200,0.139800,0.246000,0.223000,-10.135000,0.002480,-0.001413,0.001981
1764076221802889998,2025-11-25 18:40:21.800,-1.210000,1.349000,57.007000,0.265100,0.185000,0.159300,0.233000,0.219000,-10.124000,0.002280,-0.001898,0.002494
1764076221827357239,2025-11-25 18:40:21.825,-1.207000,1.347000,57.009000,0.264100,0.183100,0.138600,0.226000,0.201000,-10.125000,0.002334,-0.001008,0.002157
1764076221851346739,2025-11-25 18:40:21.848,-1.204000,1.346000,57.011000,0.266800,0.184900,0.141800,0.246000,0.219000,-10.146000,0.001406,-0.001497,0.002831
1764076221877807702,2025-11-25 18:40:21.874,-1.201000,1.344000,57.012000,0.267500,0.179300,0.138800,0.230000,0.228000,-10.136000,0.001789,-0.001945,0.001983
1764076221903020590,2025-11-25 18:40:21.900,-1.200000,1.342000,57.013000,0.266700,0.181200,0.141900,0.267000,0.202000,-10.118000,0.000883,-0.002660,0.001279
1764076221927682276,2025-11-25 18:40:21.924,-1.199000,1.340000,57.015000,0.264000,0.181200,0.138600,0.223000,0.198000,-10.075000,0.000350,-0.002150,0.000749
1764076221953494776,2025-11-25 18:40:21.950,-1.199000,1.336000,57.016000,0.265200,0.195200,0.137500,0.257000,0.161000,-10.147000,-0.000329,-0.002467,-0.000040
1764076221979515016,2025-11-25 18:40:21.977,-1.198000,1.333000,57.014000,0.266700,0.183000,0.136700,0.231000,0.140000,-10.144000,0.000523,-0.002939,0.000447
1764076222001541479,2025-11-25 18:40:21.999,-1.198000,1.325000,57.015000,0.265200,0.197000,0.135400,0.223000,0.208000,-10.131000,0.000442,-0.005096,0.000983
1764076222026968442,2025-11-25 18:40:22.024,-1.199000,1.315000,57.019000,0.265800,0.181200,0.138700,0.259000,0.218000,-10.148000,-0.000363,-0.009302,0.002122
1764076222052923757,2025-11-25 18:40:22.049,-1.202000,1.297000,57.027000,0.266700,0.182100,0.133600,0.195000,0.165000,-10.168000,-0.000983,-0.015027,0.005965
1764076222077964498,2025-11-25 18:40:22.075,-1.204000,1.273000,57.037000,0.264900,0.182100,0.137600,0.195000,0.221000,-10.178000,-0.002443,-0.017268,0.010373
1764076222102305072,2025-11-25 18:40:22.099,-1.207000,1.249000,57.056000,0.264900,0.181200,0.136600,0.186000,0.210000,-10.109000,-0.002921,-0.014589,0.014075
1764076222127047850,2025-11-25 18:40:22.124,-1.211000,1.234000,57.085000,0.266700,0.181200,0.138800,0.276000,0.235000,-10.147000,-0.004189,-0.008035,0.019461
1764076222154474461,2025-11-25 18:40:22.151,-1.217000,1.229000,57.114000,0.265800,0.181200,0.139700,0.213000,0.181000,-10.071000,-0.007008,-0.000522,0.025741
1764076222178602664,2025-11-25 18:40:22.176,-1.225000,1.230000,57.155000,0.266600,0.179300,0.130500,0.196000,0.131000,-10.051000,-0.006582,0.002885,0.031622
1764076222202937405,2025-11-25 18:40:22.200,-1.234000,1.240000,57.206000,0.264900,0.182100,0.138700,0.140000,0.201000,-10.086000,-0.005119,0.007854,0.038447
1764076222227146887,2025-11-25 18:40:22.224,-1.244000,1.258000,57.264000,0.266600,0.178400,0.139800,0.196000,0.208000,-10.175000,-0.008034,0.008415,0.044566
1764076222254789257,2025-11-25 18:40:22.251,-1.256000,1.270000,57.342000,0.264100,0.183100,0.138600,0.223000,0.294000,-10.230000,-0.010763,0.005435,0.059100
1764076222278316498,2025-11-25 18:40:22.275,-1.270000,1.265000,57.438000,0.267600,0.181100,0.140900,0.108000,0.256000,-10.082000,-0.011539,-0.004447,0.071255
1764076222302661905,2025-11-25 18:40:22.300,-1.284000,1.249000,57.552000,0.267500,0.180200,0.139800,0.157000,0.158000,-10.088000,-0.010896,-0.015101,0.086422
1764076222327515886,2025-11-25 18:40:22.324,-1.300000,1.219000,57.697000,0.269200,0.176400,0.141000,0.071000,0.170000,-10.186000,-0.016336,-0.030537,0.110930
1764076222393618146,2025-11-25 18:40:22.391,-1.340000,1.140000,58.083000,0.269300,0.179200,0.135800,0.220000,0.117000,-10.057000,-0.014615,-0.025384,0.154401
1764076222402679664,2025-11-25 18:40:22.400,-1.359000,1.112000,58.324000,0.271100,0.179200,0.142100,0.090000,0.122000,-10.241000,-0.016935,-0.024618,0.179381
1764076222428136535,2025-11-25 18:40:22.425,-1.378000,1.090000,58.599000,0.272800,0.176400,0.159800,-0.002000,0.142000,-10.312000,-0.017321,-0.022008,0.205884
1764076222455310497,2025-11-25 18:40:22.452,-1.396000,1.080000,58.901000,0.271800,0.171700,0.143200,-0.125000,0.227000,-10.141000,-0.017846,-0.004707,0.220376
1764076222475596183,2025-11-25 18:40:22.473,-1.413000,1.100000,59.232000,0.271700,0.168000,0.141200,0.165000,0.397000,-10.233000,-0.015313,0.014792,0.234673
1764076222502136572,2025-11-25 18:40:22.499,-1.430000,1.133000,59.586000,0.275200,0.166100,0.143500,0.193000,0.374000,-10.115000,-0.017340,0.024098,0.254287
1764076222527060701,2025-11-25 18:40:22.524,-1.441000,1.170000,59.955000,0.277000,0.167900,0.141500,0.123000,0.322000,-9.977000,-0.014076,0.024322,0.260027
1764076222554359275,2025-11-25 18:40:22.550,-1.447000,1.226000,60.337000,0.276900,0.162300,0.142600,0.243000,0.014000,-9.876000,-0.005728,0.035700,0.269224
1764076222577651497,2025-11-25 18:40:22.575,-1.451000,1.297000,60.727000,0.276100,0.167900,0.137300,0.519000,0.217000,-9.964000,-0.006686,0.039206,0.280343
1764076222601531849,2025-11-25 18:40:22.598,-1.451000,1.368000,61.126000,0.277700,0.160400,0.139500,0.668000,0.287000,-10.297000,-0.003784,0.040487,0.282733
1764076222627006738,2025-11-25 18:40:22.624,-1.447000,1.438000,61.535000,0.279500,0.164100,0.137500,0.030000,0.319000,-10.204000,-0.001663,0.050159,0.288161
1764076222652783294,2025-11-25 18:40:22.649,-1.437000,1.517000,61.948000,0.280300,0.157600,0.141700,0.117000,0.107000,-10.122000,-0.001618,0.053260,0.294417
1764076222678487294,2025-11-25 18:40:22.675,-1.426000,1.593000,62.372000,0.279400,0.156700,0.139600,0.139000,0.524000,-10.196000,0.000477,0.040085,0.298599
1764076222703013275,2025-11-25 18:40:22.700,-1.413000,1.658000,62.798000,0.282900,0.157500,0.136700,0.252000,0.401000,-10.197000,0.002445,0.029912,0.300116
1764076222727463590,2025-11-25 18:40:22.725,-1.395000,1.722000,63.236000,0.281100,0.155700,0.139700,0.394000,0.357000,-10.121000,0.005138,0.035913,0.309099
1764076222751859979,2025-11-25 18:40:22.749,-1.376000,1.779000,63.682000,0.285700,0.162100,0.138900,0.386000,0.402000,-10.119000,0.003372,0.031580,0.315684
1764076222779246349,2025-11-25 18:40:22.776,-1.353000,1.819000,64.137000,0.283700,0.149100,0.142000,0.541000,0.275000,-10.017000,0.004656,0.016392,0.324285
1764076222802312182,2025-11-25 18:40:22.800,-1.333000,1.843000,64.601000,0.286400,0.151900,0.142100,0.249000,0.052000,-9.939000,0.003840,0.004035,0.329482
1764076222825842442,2025-11-25 18:40:22.823,-1.312000,1.864000,65.084000,0.284400,0.142600,0.142100,0.527000,0.098000,-10.226000,0.003690,-0.002742,0.344174
1764076222852954738,2025-11-25 18:40:22.849,-1.289000,1.871000,65.577000,0.287000,0.140600,0.138100,0.665000,0.112000,-10.356000,0.004276,-0.011309,0.344269
1764076222878711071,2025-11-25 18:40:22.876,-1.266000,1.858000,66.084000,0.288800,0.140600,0.138200,0.523000,0.217000,-10.369000,0.005085,-0.015152,0.356166
1764076222902489831,2025-11-25 18:40:22.900,-1.243000,1.832000,66.598000,0.290400,0.135000,0.134200,0.285000,0.244000,-10.173000,0.002474,-0.018376,0.365724
1764076222927476756,2025-11-25 18:40:22.924,-1.223000,1.797000,67.122000,0.293200,0.139600,0.141500,0.213000,0.278000,-10.025000,0.002815,-0.029317,0.366155
1764076222952570405,2025-11-25 18:40:22.949,-1.201000,1.747000,67.646000,0.294800,0.132100,0.141700,0.127000,0.145000,-9.999000,0.003072,-0.049246,0.368880
1764076222978859405,2025-11-25 18:40:22.976,-1.178000,1.691000,68.180000,0.296400,0.126500,0.135600,0.207000,0.293000,-10.100000,0.006493,-0.055297,0.372448
1764076223003156275,2025-11-25 18:40:23.000,-1.162000,1.634000,68.714000,0.296400,0.123700,0.140800,0.587000,0.327000,-10.290000,0.002332,-0.055516,0.372494
1764076223026722868,2025-11-25 18:40:23.024,-1.147000,1.569000,69.248000,0.298900,0.119900,0.136800,0.489000,0.204000,-10.243000,-0.000465,-0.053333,0.371654
1764076223053625793,2025-11-25 18:40:23.050,-1.134000,1.491000,69.780000,0.297200,0.120900,0.141900,0.249000,0.172000,-10.082000,-0.000640,-0.055261,0.370516
1764076223078694516,2025-11-25 18:40:23.076,-1.121000,1.414000,70.307000,0.299800,0.118900,0.136900,0.106000,0.033000,-9.932000,-0.000952,-0.058529,0.367085
1764076223103025627,2025-11-25 18:40:23.100,-1.112000,1.342000,70.834000,0.304400,0.129100,0.135000,0.268000,0.088000,-10.106000,-0.001767,-0.063721,0.366912
1764076223127341238,2025-11-25 18:40:23.124,-1.107000,1.268000,71.357000,0.303200,0.114200,0.138100,0.331000,0.131000,-10.295000,-0.005198,-0.065528,0.368757
1764076223152157367,2025-11-25 18:40:23.149,-1.104000,1.195000,71.875000,0.305800,0.113200,0.134100,0.353000,0.250000,-10.187000,-0.005432,-0.052976,0.361378
1764076223178097719,2025-11-25 18:40:23.175,-1.101000,1.131000,72.390000,0.307400,0.104800,0.137400,0.227000,0.224000,-10.003000,-0.005349,-0.041215,0.358805
1764076223202289053,2025-11-25 18:40:23.200,-1.101000,1.072000,72.901000,0.307700,0.117900,0.135200,0.106000,0.333000,-9.907000,-0.004975,-0.043820,0.352397
1764076223226803571,2025-11-25 18:40:23.224,-1.106000,1.015000,73.407000,0.309900,0.096400,0.137600,0.044000,0.244000,-9.880000,-0.007765,-0.045740,0.351577
1764076223253331664,2025-11-25 18:40:23.250,-1.111000,0.972000,73.909000,0.310800,0.096400,0.145900,0.162000,0.186000,-10.072000,-0.007457,-0.036561,0.349555
1764076223279358590,2025-11-25 18:40:23.277,-1.121000,0.942000,74.406000,0.311600,0.093500,0.136700,0.310000,0.286000,-10.184000,-0.009602,-0.027800,0.346573
1764076223304156923,2025-11-25 18:40:23.301,-1.133000,0.913000,74.901000,0.311600,0.092600,0.136700,0.154000,0.245000,-10.038000,-0.014110,-0.019559,0.345105
1764076223327526238,2025-11-25 18:40:23.325,-1.150000,0.892000,75.400000,0.313300,0.092600,0.135700,0.021000,0.060000,-9.888000,-0.018544,-0.010596,0.346968
1764076223393058015,2025-11-25 18:40:23.391,-1.192000,0.891000,76.390000,0.311800,0.084100,0.134500,0.143000,0.193000,-10.099000,-0.021036,-0.008868,0.346973
1764076223403108830,2025-11-25 18:40:23.401,-1.215000,0.900000,76.889000,0.313600,0.086800,0.134500,0.191000,0.206000,-10.209000,-0.022535,0.001609,0.348280
1764076223428326793,2025-11-25 18:40:23.425,-1.239000,0.923000,77.385000,0.318000,0.082100,0.132700,0.107000,0.297000,-10.149000,-0.022455,0.015640,0.350052
1764076223456070015,2025-11-25 18:40:23.453,-1.263000,0.958000,77.887000,0.316200,0.082100,0.134700,0.149000,0.227000,-10.144000,-0.023861,0.022272,0.351367
1764076223477696071,2025-11-25 18:40:23.474,-1.287000,0.995000,78.393000,0.316900,0.072800,0.135900,0.017000,0.150000,-10.070000,-0.023548,0.019580,0.358947
1764076223504357626,2025-11-25 18:40:23.501,-1.309000,1.039000,78.909000,0.316000,0.071900,0.140000,0.033000,0.232000,-10.069000,-0.019688,0.022787,0.361885
1764076223527761849,2025-11-25 18:40:23.524,-1.329000,1.094000,79.428000,0.319600,0.073700,0.140100,0.240000,0.286000,-10.204000,-0.018605,0.027853,0.363086
1764076223553399238,2025-11-25 18:40:23.550,-1.347000,1.148000,79.945000,0.319500,0.068100,0.140200,0.343000,0.302000,-10.211000,-0.020354,0.028400,0.367484
1764076223578965793,2025-11-25 18:40:23.576,-1.362000,1.194000,80.472000,0.317500,0.058800,0.141200,0.219000,0.229000,-9.951000,-0.015234,0.027355,0.372850
1764076223603469163,2025-11-25 18:40:23.601,-1.371000,1.244000,81.002000,0.319400,0.066200,0.136000,0.156000,0.254000,-9.934000,-0.012355,0.029934,0.373727
1764076223627515830,2025-11-25 18:40:23.624,-1.375000,1.297000,81.534000,0.321000,0.056900,0.136200,0.307000,0.124000,-10.069000,-0.010348,0.024049,0.376944
1764076223654406404,2025-11-25 18:40:23.651,-1.376000,1.342000,82.069000,0.320800,0.050400,0.141400,0.346000,0.256000,-10.150000,-0.009958,0.013464,0.378098
1764076223677949700,2025-11-25 18:40:23.675,-1.373000,1.380000,82.603000,0.321700,0.048500,0.136300,0.305000,0.269000,-10.166000,-0.005668,0.016898,0.376487
1764076223703267015,2025-11-25 18:40:23.701,-1.365000,1.417000,83.138000,0.322500,0.043800,0.140500,0.351000,0.226000,-10.098000,-0.003455,0.019536,0.377733
1764076223728176441,2025-11-25 18:40:23.725,-1.351000,1.447000,83.671000,0.319800,0.043800,0.140400,0.316000,0.370000,-10.111000,0.002015,0.009303,0.374483
1764076223752324719,2025-11-25 18:40:23.749,-1.334000,1.464000,84.201000,0.321400,0.037300,0.138500,0.344000,0.409000,-10.028000,0.004670,0.000002,0.370594
1764076223777905737,2025-11-25 18:40:23.775,-1.314000,1.476000,84.723000,0.321400,0.036300,0.134300,0.331000,0.337000,-10.061000,0.007147,-0.002145,0.367330
1764076223803262274,2025-11-25 18:40:23.801,-1.293000,1.482000,85.245000,0.323200,0.036300,0.137500,0.419000,0.314000,-10.158000,0.010400,-0.007814,0.361886
1764076223827516719,2025-11-25 18:40:23.824,-1.267000,1.475000,85.760000,0.325000,0.038100,0.135600,0.329000,0.334000,-10.041000,0.010823,-0.015750,0.358678
1764076223854595200,2025-11-25 18:40:23.851,-1.242000,1.456000,86.266000,0.323000,0.027900,0.136600,0.340000,0.292000,-9.959000,0.008995,-0.019877,0.357119
1764076223877655237,2025-11-25 18:40:23.874,-1.219000,1.436000,86.773000,0.324700,0.027000,0.135600,0.241000,0.309000,-9.950000,0.007291,-0.020013,0.356219
1764076223903315163,2025-11-25 18:40:23.901,-1.195000,1.413000,87.275000,0.323000,0.026100,0.136600,0.325000,0.260000,-10.059000,0.008165,-0.027857,0.351628
1764076223927139089,2025-11-25 18:40:23.924,-1.174000,1.380000,87.775000,0.323800,0.024200,0.133500,0.289000,0.322000,-10.016000,0.005625,-0.033719,0.352453
1764076223953953682,2025-11-25 18:40:23.950,-1.155000,1.344000,88.272000,0.323700,0.021400,0.131500,0.255000,0.317000,-10.067000,0.002282,-0.031590,0.352301
1764076223978962015,2025-11-25 18:40:23.976,-1.140000,1.309000,88.771000,0.322800,0.016700,0.137700,0.239000,0.274000,-10.025000,0.002148,-0.031280,0.350138
1764076224002699034,2025-11-25 18:40:24.000,-1.130000,1.271000,89.262000,0.325400,0.014800,0.137800,0.246000,0.232000,-10.015000,-0.002910,-0.037553,0.348807
1764076224025646274,2025-11-25 18:40:24.022,-1.123000,1.230000,89.759000,0.324400,0.013000,0.136800,0.236000,0.204000,-10.070000,-0.004626,-0.036712,0.349764
1764076224051910571,2025-11-25 18:40:24.048,-1.123000,1.193000,90.260000,0.323400,0.006500,0.135700,0.216000,0.182000,-10.084000,-0.007206,-0.034277,0.350610
1764076224078591700,2025-11-25 18:40:24.075,-1.126000,1.159000,90.759000,0.324300,0.005500,0.138900,0.299000,0.118000,-10.089000,-0.010750,-0.032411,0.352195
1764076224102094793,2025-11-25 18:40:24.099,-1.134000,1.124000,91.261000,0.325100,0.004600,0.135900,0.231000,0.112000,-10.112000,-0.015306,-0.029882,0.352697
1764076224127422237,2025-11-25 18:40:24.124,-1.147000,1.093000,91.762000,0.328600,-0.000100,0.134000,0.141000,0.136000,-10.068000,-0.017204,-0.025259,0.352099
1764076224151649922,2025-11-25 18:40:24.148,-1.161000,1.069000,92.268000,0.327600,-0.004800,0.131900,0.179000,0.108000,-10.131000,-0.019297,-0.023267,0.355563
1764076224179136978,2025-11-25 18:40:24.176,-1.181000,1.048000,92.778000,0.326600,-0.007600,0.134000,0.190000,0.075000,-10.191000,-0.024292,-0.022327,0.361580
1764076224203892330,2025-11-25 18:40:24.201,-1.204000,1.029000,93.290000,0.327600,-0.003900,0.129900,0.149000,0.191000,-10.181000,-0.023339,-0.017054,0.359826
1764076224228808496,2025-11-25 18:40:24.225,-1.226000,1.020000,93.803000,0.324000,-0.007500,0.132800,0.115000,0.262000,-10.155000,-0.022302,-0.011185,0.362136
1764076224253962070,2025-11-25 18:40:24.250,-1.248000,1.017000,94.320000,0.329200,-0.013200,0.132100,0.186000,0.180000,-10.119000,-0.024427,-0.006507,0.364935
1764076224279464015,2025-11-25 18:40:24.277,-1.273000,1.018000,94.838000,0.323900,-0.012200,0.131800,0.134000,0.299000,-10.092000,-0.021622,-0.007427,0.363538
1764076224302441922,2025-11-25 18:40:24.299,-1.294000,1.024000,95.360000,0.327200,-0.022500,0.132100,0.120000,0.222000,-10.079000,-0.020479,-0.002540,0.367827
1764076224328186052,2025-11-25 18:40:24.324,-1.314000,1.038000,95.877000,0.326800,-0.022400,0.136000,0.238000,0.180000,-10.032000,-0.020685,0.002798,0.367784
1764076224392652033,2025-11-25 18:40:24.390,-1.348000,1.073000,96.913000,0.324900,-0.028900,0.134900,0.220000,0.261000,-10.053000,-0.017149,0.004793,0.364205
1764076224402751589,2025-11-25 18:40:24.400,-1.358000,1.095000,97.430000,0.324800,-0.033600,0.136000,0.134000,0.224000,-9.998000,-0.014883,0.008584,0.365807
1764076224427759422,2025-11-25 18:40:24.424,-1.367000,1.122000,97.942000,0.324800,-0.033600,0.133900,0.261000,0.290000,-10.118000,-0.011641,0.006905,0.363626
1764076224450597478,2025-11-25 18:40:24.447,-1.370000,1.147000,98.449000,0.322100,-0.035400,0.133800,0.245000,0.404000,-10.075000,-0.007412,0.007416,0.360920
1764076224479929274,2025-11-25 18:40:24.477,-1.367000,1.174000,98.953000,0.324500,-0.043800,0.130900,0.275000,0.297000,-10.031000,-0.006665,0.011392,0.357560
1764076224501649181,2025-11-25 18:40:24.498,-1.363000,1.203000,99.455000,0.323600,-0.046600,0.137000,0.268000,0.414000,-10.065000,-0.000321,0.013627,0.353459
1764076224525796626,2025-11-25 18:40:24.523,-1.354000,1.229000,99.953000,0.321000,-0.046600,0.131700,0.246000,0.307000,-10.051000,0.000247,0.007917,0.353166
1764076224551327774,2025-11-25 18:40:24.548,-1.343000,1.252000,100.452000,0.321700,-0.053100,0.131800,0.249000,0.242000,-10.008000,0.001328,0.008819,0.352580
1764076224578801978,2025-11-25 18:40:24.575,-1.332000,1.277000,100.948000,0.320800,-0.054000,0.132800,0.288000,0.381000,-10.050000,0.002191,0.007569,0.350175
1764076224603256496,2025-11-25 18:40:24.600,-1.319000,1.300000,101.445000,0.323400,-0.055900,0.132000,0.376000,0.216000,-10.078000,0.000216,0.005478,0.348753
1764076224627682607,2025-11-25 18:40:24.624,-1.307000,1.316000,101.939000,0.320800,-0.056800,0.133900,0.284000,0.228000,-10.076000,-0.000540,0.002490,0.349618
1764076224654514385,2025-11-25 18:40:24.651,-1.298000,1.329000,102.434000,0.321600,-0.056800,0.135000,0.267000,0.202000,-10.025000,-0.000846,0.000386,0.348749
1764076224677298311,2025-11-25 18:40:24.674,-1.286000,1.340000,102.929000,0.320800,-0.056800,0.132900,0.277000,0.209000,-10.168000,0.000855,-0.002675,0.348558
1764076224703132792,2025-11-25 18:40:24.700,-1.275000,1.345000,103.422000,0.318800,-0.067900,0.134900,0.308000,0.172000,-10.195000,-0.004091,-0.007514,0.350254
1764076224727618978,2025-11-25 18:40:24.724,-1.269000,1.345000,103.921000,0.317000,-0.068800,0.132800,0.259000,0.209000,-10.159000,-0.004903,-0.008073,0.350744
1764076224754134200,2025-11-25 18:40:24.750,-1.264000,1.343000,104.417000,0.316900,-0.075300,0.135900,0.273000,0.345000,-10.214000,-0.005010,-0.008483,0.349606
1764076224779653644,2025-11-25 18:40:24.777,-1.259000,1.337000,104.917000,0.315900,-0.077200,0.137900,0.229000,0.106000,-10.179000,-0.005872,-0.012733,0.355404
1764076224800233478,2025-11-25 18:40:24.797,-1.258000,1.326000,105.420000,0.316800,-0.077200,0.133900,0.197000,0.310000,-10.142000,-0.006788,-0.015482,0.351447
1764076224826717737,2025-11-25 18:40:24.823,-1.259000,1.314000,105.919000,0.316700,-0.082800,0.136000,0.301000,0.239000,-10.097000,-0.008987,-0.017183,0.352364
1764076224852625774,2025-11-25 18:40:24.849,-1.261000,1.302000,106.422000,0.316700,-0.084600,0.135000,0.307000,0.117000,-10.146000,-0.010264,-0.017990,0.353882
1764076224878535533,2025-11-25 18:40:24.876,-1.266000,1.285000,106.927000,0.314700,-0.091100,0.129800,0.255000,0.193000,-10.006000,-0.010687,-0.019908,0.355662
1764076224903111774,2025-11-25 18:40:24.900,-1.271000,1.267000,107.431000,0.313900,-0.090200,0.134900,0.308000,0.195000,-10.057000,-0.011740,-0.021457,0.355736
1764076224928079422,2025-11-25 18:40:24.925,-1.277000,1.250000,107.935000,0.312100,-0.092000,0.129600,0.263000,0.150000,-10.122000,-0.012662,-0.020043,0.358756
1764076224955198144,2025-11-25 18:40:24.952,-1.286000,1.232000,108.440000,0.312900,-0.093900,0.132800,0.295000,0.174000,-10.086000,-0.014740,-0.021362,0.356533
1764076224976493385,2025-11-25 18:40:24.973,-1.294000,1.214000,108.945000,0.309300,-0.096600,0.129500,0.232000,0.198000,-10.167000,-0.013278,-0.020186,0.353906
1764076225002083163,2025-11-25 18:40:24.999,-1.300000,1.198000,109.445000,0.312100,-0.088300,0.130600,0.258000,0.170000,-10.202000,-0.014012,-0.018499,0.357994
1764076225026533440,2025-11-25 18:40:25.023,-1.307000,1.183000,109.952000,0.307400,-0.104100,0.127400,0.233000,0.247000,-10.187000,-0.011990,-0.017086,0.356724
1764076225052301848,2025-11-25 18:40:25.048,-1.314000,1.169000,110.455000,0.308300,-0.103100,0.131600,0.220000,0.268000,-10.180000,-0.011102,-0.016509,0.353864
1764076225078778440,2025-11-25 18:40:25.076,-1.319000,1.157000,110.959000,0.307400,-0.106800,0.131600,0.209000,0.152000,-10.224000,-0.010472,-0.016032,0.354809
1764076225103048366,2025-11-25 18:40:25.100,-1.322000,1.148000,111.466000,0.307300,-0.108700,0.129500,0.183000,0.220000,-10.207000,-0.007167,-0.012764,0.356140
1764076225128414644,2025-11-25 18:40:25.125,-1.324000,1.141000,111.970000,0.306300,-0.111500,0.126400,0.265000,0.202000,-10.166000,-0.007800,-0.012135,0.354310
1764076225152965403,2025-11-25 18:40:25.150,-1.325000,1.135000,112.474000,0.303600,-0.115200,0.127300,0.142000,0.086000,-10.186000,-0.008505,-0.011140,0.356453
1764076225177924125,2025-11-25 18:40:25.175,-1.324000,1.132000,112.980000,0.302700,-0.118800,0.132500,0.203000,0.184000,-10.131000,-0.005997,-0.007889,0.357320
1764076225201964051,2025-11-25 18:40:25.199,-1.322000,1.132000,113.486000,0.304400,-0.120800,0.128500,0.205000,0.163000,-10.118000,-0.004970,-0.008823,0.356015
1764076225229273755,2025-11-25 18:40:25.226,-1.319000,1.131000,113.991000,0.302700,-0.118900,0.129400,0.193000,0.201000,-10.128000,-0.006128,-0.007746,0.357092
1764076225252661200,2025-11-25 18:40:25.250,-1.316000,1.135000,114.497000,0.302500,-0.125400,0.129400,0.192000,0.229000,-10.036000,-0.005617,-0.004328,0.360116
1764076225277116292,2025-11-25 18:40:25.274,-1.313000,1.141000,115.001000,0.301500,-0.131900,0.131500,0.242000,0.265000,-10.026000,-0.005984,-0.005460,0.357397
1764076225301016051,2025-11-25 18:40:25.298,-1.309000,1.146000,115.505000,0.298100,-0.126200,0.130200,0.212000,0.149000,-10.074000,-0.004506,-0.004265,0.358221
1764076225327289014,2025-11-25 18:40:25.324,-1.305000,1.153000,116.009000,0.295800,-0.127800,0.126800,0.188000,0.364000,-10.070000,-0.003457,-0.004322,0.356399
1764076225392601403,2025-11-25 18:40:25.390,-1.298000,1.172000,117.015000,0.292900,-0.138000,0.125700,0.256000,0.148000,-10.069000,-0.005474,-0.002692,0.357253
1764076225402630070,2025-11-25 18:40:25.400,-1.297000,1.180000,117.522000,0.292900,-0.141700,0.128800,0.256000,0.310000,-10.113000,-0.006208,-0.001362,0.356100
1764076225427531736,2025-11-25 18:40:25.424,-1.295000,1.191000,118.023000,0.292900,-0.141700,0.128800,0.250000,0.263000,-10.055000,-0.006397,-0.000182,0.353720
1764076225451998199,2025-11-25 18:40:25.448,-1.294000,1.203000,118.525000,0.290100,-0.148100,0.129800,0.279000,0.159000,-10.126000,-0.007304,0.000534,0.354438
1764076225477866977,2025-11-25 18:40:25.475,-1.296000,1.214000,119.031000,0.289100,-0.151800,0.131800,0.287000,0.202000,-10.182000,-0.009529,-0.000999,0.354835
1764076225500009607,2025-11-25 18:40:25.497,-1.299000,1.224000,119.534000,0.287400,-0.149900,0.130700,0.249000,0.231000,-10.117000,-0.008316,-0.000118,0.353030
1764076225526754310,2025-11-25 18:40:25.524,-1.301000,1.237000,120.036000,0.285500,-0.154500,0.129600,0.302000,0.050000,-10.172000,-0.010641,0.001018,0.354786
1764076225551369255,2025-11-25 18:40:25.548,-1.305000,1.250000,120.540000,0.284800,-0.148000,0.126400,0.254000,0.160000,-10.242000,-0.009957,0.000109,0.353669
1764076225578765718,2025-11-25 18:40:25.575,-1.311000,1.260000,121.038000,0.283700,-0.157300,0.130500,0.237000,0.148000,-10.129000,-0.013546,-0.001610,0.354792
1764076225603053422,2025-11-25 18:40:25.600,-1.317000,1.273000,121.543000,0.281000,-0.160000,0.131500,0.251000,0.056000,-10.180000,-0.014158,0.001409,0.355426
1764076225627812959,2025-11-25 18:40:25.624,-1.323000,1.285000,122.046000,0.281800,-0.163800,0.129500,0.218000,0.171000,-10.256000,-0.012648,-0.000484,0.354724
1764076225653801070,2025-11-25 18:40:25.650,-1.328000,1.295000,122.551000,0.280000,-0.164700,0.126300,0.276000,0.209000,-10.201000,-0.012841,-0.005440,0.353938
1764076225678030421,2025-11-25 18:40:25.675,-1.335000,1.300000,123.054000,0.275500,-0.170200,0.128200,0.192000,0.087000,-10.138000,-0.014803,-0.004053,0.358109
1764076225701406755,2025-11-25 18:40:25.699,-1.343000,1.307000,123.559000,0.276400,-0.171100,0.124100,0.271000,0.131000,-10.225000,-0.014980,-0.005647,0.355062
1764076225726407347,2025-11-25 18:40:25.723,-1.350000,1.309000,124.065000,0.272800,-0.172900,0.130100,0.252000,0.305000,-10.201000,-0.013478,-0.010600,0.359327
1764076225751324940,2025-11-25 18:40:25.748,-1.354000,1.307000,124.568000,0.272700,-0.177600,0.129100,0.288000,0.038000,-10.119000,-0.013365,-0.011151,0.357883
1764076225778218347,2025-11-25 18:40:25.775,-1.359000,1.304000,125.072000,0.272700,-0.177600,0.128100,0.201000,0.246000,-10.158000,-0.012029,-0.009778,0.355693
1764076225803452051,2025-11-25 18:40:25.801,-1.363000,1.302000,125.570000,0.270900,-0.180300,0.131100,0.308000,0.383000,-10.131000,-0.010692,-0.014762,0.353702
1764076225827665329,2025-11-25 18:40:25.824,-1.365000,1.294000,126.070000,0.264700,-0.182000,0.133900,0.256000,0.237000,-10.129000,-0.010716,-0.016184,0.357301
1764076225855465514,2025-11-25 18:40:25.852,-1.363000,1.285000,126.569000,0.268100,-0.188600,0.126900,0.257000,0.180000,-10.121000,-0.006199,-0.015268,0.353450
1764076225876689977,2025-11-25 18:40:25.874,-1.360000,1.278000,127.068000,0.265400,-0.190400,0.129900,0.259000,0.277000,-10.074000,-0.006761,-0.013403,0.354389
1764076225902192440,2025-11-25 18:40:25.899,-1.358000,1.268000,127.564000,0.263600,-0.190400,0.125700,0.281000,0.322000,-10.094000,-0.006839,-0.017288,0.351031
1764076225926845569,2025-11-25 18:40:25.924,-1.355000,1.254000,128.062000,0.261100,-0.186600,0.132700,0.282000,0.273000,-10.066000,-0.005175,-0.017775,0.352056
1764076225951698403,2025-11-25 18:40:25.948,-1.351000,1.243000,128.556000,0.259200,-0.194000,0.131700,0.264000,0.287000,-10.054000,-0.003603,-0.016491,0.351498
1764076225977478199,2025-11-25 18:40:25.975,-1.344000,1.231000,129.055000,0.256500,-0.194900,0.127400,0.343000,0.295000,-10.075000,-0.003371,-0.016906,0.353448
1764076226002339255,2025-11-25 18:40:25.999,-1.340000,1.216000,129.550000,0.256600,-0.192100,0.127400,0.252000,0.244000,-10.103000,-0.005467,-0.020255,0.351277
1764076226026061273,2025-11-25 18:40:26.023,-1.337000,1.201000,130.051000,0.255500,-0.200500,0.126400,0.226000,0.280000,-10.161000,-0.003653,-0.016300,0.350092
1764076226052154495,2025-11-25 18:40:26.049,-1.331000,1.188000,130.551000,0.252900,-0.202300,0.128300,0.288000,0.186000,-10.162000,-0.004931,-0.017018,0.350591
1764076226077169736,2025-11-25 18:40:26.074,-1.326000,1.174000,131.052000,0.252700,-0.206900,0.127300,0.209000,0.152000,-10.193000,-0.002201,-0.019092,0.351149
1764076226102322199,2025-11-25 18:40:26.100,-1.324000,1.160000,131.554000,0.248300,-0.208700,0.125100,0.201000,0.177000,-10.226000,-0.005273,-0.019000,0.353469
1764076226126419810,2025-11-25 18:40:26.123,-1.322000,1.150000,132.058000,0.249200,-0.209700,0.126100,0.237000,0.126000,-10.175000,-0.007380,-0.013664,0.354296
1764076226151867884,2025-11-25 18:40:26.148,-1.323000,1.141000,132.559000,0.247400,-0.208700,0.126000,0.215000,0.156000,-10.151000,-0.007470,-0.013859,0.352057
1764076226178221069,2025-11-25 18:40:26.175,-1.322000,1.134000,133.055000,0.243900,-0.207700,0.126900,0.179000,0.173000,-10.219000,-0.008159,-0.013197,0.351556
1764076226203874440,2025-11-25 18:40:26.201,-1.325000,1.129000,133.555000,0.242000,-0.214200,0.124800,0.165000,0.197000,-10.094000,-0.011043,-0.008663,0.354674
1764076226226340958,2025-11-25 18:40:26.223,-1.328000,1.131000,134.053000,0.240200,-0.217900,0.127800,0.226000,0.114000,-10.194000,-0.010120,-0.007098,0.352282
1764076226251641977,2025-11-25 18:40:26.248,-1.333000,1.129000,134.551000,0.236600,-0.222500,0.123500,0.166000,0.188000,-10.163000,-0.011328,-0.009845,0.351400
1764076226278042199,2025-11-25 18:40:26.275,-1.339000,1.130000,135.047000,0.237600,-0.214100,0.124600,0.224000,0.139000,-10.052000,-0.014070,-0.008057,0.351899
1764076226302422088,2025-11-25 18:40:26.299,-1.345000,1.136000,135.541000,0.237400,-0.225300,0.125700,0.158000,0.181000,-10.039000,-0.012049,-0.003463,0.353224
1764076226328622088,2025-11-25 18:40:26.324,-1.351000,1.143000,136.036000,0.231800,-0.230500,0.126300,0.281000,0.290000,-10.159000,-0.012381,-0.006341,0.350205
1764076226398615680,2025-11-25 18:40:26.396,-1.367000,1.153000,137.024000,0.227400,-0.228500,0.125000,0.204000,0.172000,-9.990000,-0.012701,-0.004015,0.350601
1764076226407793347,2025-11-25 18:40:26.405,-1.373000,1.160000,137.519000,0.223000,-0.227500,0.121700,0.231000,0.350000,-10.091000,-0.010516,-0.006189,0.349889
1764076226425822143,2025-11-25 18:40:26.423,-1.379000,1.165000,138.011000,0.224600,-0.233100,0.121800,0.225000,0.294000,-10.068000,-0.012915,-0.009401,0.351546
1764076226454052106,2025-11-25 18:40:26.450,-1.387000,1.169000,138.507000,0.222000,-0.233100,0.123700,0.243000,0.243000,-10.010000,-0.012439,-0.005255,0.352414
1764076226477154069,2025-11-25 18:40:26.474,-1.393000,1.174000,138.998000,0.220100,-0.238600,0.123700,0.250000,0.312000,-10.127000,-0.009894,-0.005058,0.348429
1764076226501768365,2025-11-25 18:40:26.499,-1.396000,1.179000,139.497000,0.219200,-0.239600,0.114400,0.289000,0.221000,-10.122000,-0.010366,-0.008046,0.351748
1764076226525397810,2025-11-25 18:40:26.522,-1.399000,1.181000,139.994000,0.215700,-0.242200,0.125500,0.218000,0.170000,-10.129000,-0.010634,-0.009399,0.350362
1764076226555039199,2025-11-25 18:40:26.550,-1.402000,1.183000,140.490000,0.214800,-0.240400,0.124400,0.259000,0.254000,-10.212000,-0.007851,-0.006357,0.349390
1764076226576922791,2025-11-25 18:40:26.574,-1.402000,1.186000,140.989000,0.211300,-0.242200,0.122200,0.255000,0.234000,-10.208000,-0.009076,-0.008382,0.352790
1764076226602524088,2025-11-25 18:40:26.600,-1.401000,1.184000,141.489000,0.209400,-0.248600,0.122200,0.237000,0.199000,-10.194000,-0.006179,-0.009392,0.351106
1764076226626702254,2025-11-25 18:40:26.623,-1.399000,1.182000,141.985000,0.205000,-0.247600,0.120900,0.182000,0.245000,-10.172000,-0.004256,-0.008834,0.348834
1764076226651676588,2025-11-25 18:40:26.648,-1.395000,1.180000,142.484000,0.204200,-0.245800,0.121900,0.219000,0.196000,-10.221000,-0.005676,-0.009455,0.351389
1764076226677250125,2025-11-25 18:40:26.674,-1.392000,1.177000,142.984000,0.203400,-0.242000,0.120800,0.235000,0.122000,-10.129000,-0.005669,-0.013829,0.352182
1764076226702395939,2025-11-25 18:40:26.700,-1.386000,1.170000,143.477000,0.197900,-0.250300,0.124700,0.189000,0.206000,-10.199000,-0.003595,-0.014129,0.349108
1764076226726911476,2025-11-25 18:40:26.724,-1.381000,1.162000,143.973000,0.196900,-0.254900,0.121600,0.218000,0.242000,-10.078000,-0.004980,-0.012859,0.353544
1764076226751693625,2025-11-25 18:40:26.748,-1.377000,1.160000,144.467000,0.196800,-0.260500,0.123700,0.298000,0.199000,-10.095000,-0.006214,-0.013061,0.349014
1764076226777993125,2025-11-25 18:40:26.774,-1.373000,1.152000,144.961000,0.195100,-0.257700,0.121500,0.273000,0.189000,-10.075000,-0.004727,-0.014577,0.350343
1764076226803107699,2025-11-25 18:40:26.800,-1.369000,1.146000,145.452000,0.189000,-0.256600,0.122200,0.238000,0.282000,-10.108000,-0.006990,-0.014433,0.350750
1764076226827891643,2025-11-25 18:40:26.825,-1.366000,1.141000,145.943000,0.187100,-0.261200,0.119100,0.235000,0.171000,-10.058000,-0.005771,-0.012640,0.348001
1764076226854495939,2025-11-25 18:40:26.851,-1.365000,1.135000,146.434000,0.187200,-0.257500,0.119100,0.283000,0.158000,-10.088000,-0.007039,-0.016151,0.345043
1764076226878401976,2025-11-25 18:40:26.876,-1.364000,1.126000,146.926000,0.183600,-0.263900,0.127200,0.287000,0.357000,-10.100000,-0.007172,-0.015760,0.349434
1764076226903281124,2025-11-25 18:40:26.900,-1.365000,1.120000,147.417000,0.184300,-0.269500,0.126200,0.345000,0.126000,-10.121000,-0.008523,-0.011800,0.346236
1764076226926921773,2025-11-25 18:40:26.923,-1.366000,1.117000,147.911000,0.177400,-0.267500,0.127900,0.277000,0.252000,-10.182000,-0.007193,-0.009576,0.346298
1764076226950389032,2025-11-25 18:40:26.947,-1.369000,1.115000,148.405000,0.176300,-0.274000,0.126900,0.173000,0.348000,-10.265000,-0.010147,-0.008376,0.347796
1764076226979408384,2025-11-25 18:40:26.976,-1.374000,1.118000,148.902000,0.174500,-0.275800,0.125800,0.133000,0.137000,-10.243000,-0.011490,-0.002843,0.346762
1764076227001900624,2025-11-25 18:40:26.999,-1.379000,1.124000,149.398000,0.171900,-0.276700,0.124600,0.204000,0.029000,-10.115000,-0.010122,-0.001808,0.349628
1764076227026850902,2025-11-25 18:40:27.023,-1.384000,1.132000,149.894000,0.169300,-0.273900,0.124500,0.229000,0.295000,-10.264000,-0.009337,-0.002832,0.348361
1764076227051712198,2025-11-25 18:40:27.048,-1.390000,1.142000,150.392000,0.168300,-0.278500,0.120300,0.138000,0.288000,-10.195000,-0.010364,-0.000403,0.352667
1764076227076999958,2025-11-25 18:40:27.074,-1.396000,1.154000,150.887000,0.163900,-0.280300,0.117000,0.202000,0.204000,-10.192000,-0.011420,0.000213,0.347888
1764076227102008772,2025-11-25 18:40:27.099,-1.402000,1.163000,151.385000,0.163800,-0.282200,0.123200,0.181000,0.148000,-10.162000,-0.010308,-0.001998,0.350035
1764076227126969698,2025-11-25 18:40:27.123,-1.406000,1.171000,151.879000,0.162300,-0.270100,0.117900,0.206000,0.053000,-10.086000,-0.011870,-0.002335,0.349377
1764076227154697439,2025-11-25 18:40:27.151,-1.410000,1.180000,152.371000,0.156900,-0.277400,0.119700,0.201000,0.267000,-10.055000,-0.010423,-0.003233,0.351124
1764076227177492772,2025-11-25 18:40:27.174,-1.413000,1.188000,152.864000,0.155000,-0.282900,0.122800,0.306000,0.376000,-10.061000,-0.009039,-0.005673,0.347254
1764076227201859272,2025-11-25 18:40:27.199,-1.415000,1.193000,153.358000,0.151400,-0.285700,0.119500,0.271000,0.223000,-10.105000,-0.007160,-0.006222,0.348342
1764076227226836865,2025-11-25 18:40:27.223,-1.415000,1.196000,153.847000,0.149700,-0.284700,0.119400,0.192000,0.262000,-10.051000,-0.006913,-0.006463,0.343325
1764076227253733513,2025-11-25 18:40:27.251,-1.414000,1.199000,154.331000,0.147900,-0.287400,0.121400,0.178000,0.273000,-10.094000,-0.004789,-0.007972,0.341879
1764076227279453421,2025-11-25 18:40:27.276,-1.410000,1.200000,154.804000,0.143400,-0.291100,0.116100,0.210000,0.359000,-10.103000,-0.003940,-0.012928,0.334008
1764076227302630865,2025-11-25 18:40:27.300,-1.406000,1.197000,155.272000,0.143500,-0.286400,0.117100,0.306000,0.362000,-10.232000,-0.004415,-0.010468,0.327680
1764076227327337161,2025-11-25 18:40:27.324,-1.401000,1.194000,155.729000,0.141600,-0.291100,0.117000,0.236000,0.347000,-10.137000,-0.003432,-0.005684,0.320003
1764076227409880087,2025-11-25 18:40:27.407,-1.383000,1.187000,156.617000,0.135700,-0.288400,0.114600,0.143000,0.277000,-9.982000,0.002194,-0.013614,0.306268
1764076227419184754,2025-11-25 18:40:27.417,-1.373000,1.182000,157.047000,0.133800,-0.293900,0.123800,0.211000,0.178000,-10.062000,0.002198,-0.014687,0.300652
1764076227428779291,2025-11-25 18:40:27.426,-1.362000,1.182000,157.468000,0.130300,-0.293900,0.120500,0.354000,0.203000,-10.225000,0.004435,-0.011418,0.292283
1764076227453097809,2025-11-25 18:40:27.449,-1.349000,1.179000,157.883000,0.129400,-0.293900,0.120500,0.290000,0.223000,-10.226000,0.001863,-0.012180,0.289409
1764076227479179272,2025-11-25 18:40:27.476,-1.339000,1.170000,158.289000,0.126700,-0.295700,0.121400,0.255000,0.248000,-10.132000,0.000078,-0.012070,0.285725
1764076227501943920,2025-11-25 18:40:27.499,-1.328000,1.160000,158.687000,0.125000,-0.295700,0.116100,0.172000,0.227000,-10.039000,0.000902,-0.013042,0.279528
1764076227527173457,2025-11-25 18:40:27.523,-1.316000,1.148000,159.077000,0.123300,-0.291900,0.117000,0.207000,0.176000,-10.101000,0.000274,-0.018184,0.274619
1764076227552741217,2025-11-25 18:40:27.549,-1.308000,1.132000,159.463000,0.121400,-0.298400,0.112900,0.219000,0.251000,-10.156000,0.000677,-0.021691,0.268201
1764076227577922420,2025-11-25 18:40:27.575,-1.299000,1.117000,159.838000,0.119600,-0.301100,0.120000,0.277000,0.229000,-10.245000,-0.001219,-0.018109,0.261759
1764076227603619180,2025-11-25 18:40:27.600,-1.294000,1.108000,160.204000,0.117000,-0.300200,0.118900,0.339000,0.270000,-10.135000,-0.000623,-0.007972,0.255494
1764076227628850698,2025-11-25 18:40:27.625,-1.289000,1.112000,160.561000,0.113400,-0.301000,0.117700,0.232000,0.189000,-10.106000,-0.001783,0.005797,0.247873
1764076227655155568,2025-11-25 18:40:27.651,-1.282000,1.136000,160.904000,0.113400,-0.302900,0.116600,0.205000,0.196000,-10.029000,0.001311,0.018648,0.235875
1764076227677978013,2025-11-25 18:40:27.675,-1.276000,1.176000,161.234000,0.109000,-0.300000,0.117400,0.227000,0.198000,-9.957000,-0.000761,0.023362,0.229648
1764076227703784605,2025-11-25 18:40:27.701,-1.272000,1.233000,161.556000,0.109800,-0.305600,0.121600,0.408000,0.121000,-10.070000,-0.002096,0.032499,0.222891
1764076227728840291,2025-11-25 18:40:27.725,-1.270000,1.305000,161.866000,0.107300,-0.299000,0.121400,0.402000,0.225000,-10.193000,-0.001861,0.048091,0.217590
1764076227753887587,2025-11-25 18:40:27.750,-1.267000,1.394000,162.165000,0.106200,-0.307400,0.118400,0.420000,0.126000,-10.173000,-0.006688,0.062644,0.209942
1764076227779117865,2025-11-25 18:40:27.776,-1.268000,1.492000,162.457000,0.101900,-0.305500,0.119200,0.408000,0.201000,-10.060000,-0.006429,0.068538,0.204395
1764076227803607217,2025-11-25 18:40:27.801,-1.274000,1.594000,162.739000,0.100100,-0.307300,0.119100,0.396000,0.249000,-10.031000,-0.012752,0.065820,0.197006
1764076227827770328,2025-11-25 18:40:27.824,-1.281000,1.708000,163.003000,0.101100,-0.302600,0.121200,0.596000,0.062000,-10.140000,-0.011208,0.073616,0.187194
1764076227852825309,2025-11-25 18:40:27.849,-1.290000,1.841000,163.253000,0.098300,-0.308200,0.119000,0.695000,0.237000,-10.148000,-0.009758,0.092464,0.168422
1764076227879533828,2025-11-25 18:40:27.876,-1.298000,1.996000,163.479000,0.094900,-0.305300,0.119800,0.946000,0.236000,-10.007000,-0.011865,0.110810,0.152741
1764076227903166235,2025-11-25 18:40:27.900,-1.306000,2.179000,163.674000,0.094900,-0.302500,0.120800,0.801000,0.161000,-9.870000,-0.008033,0.137699,0.129338
1764076227927061605,2025-11-25 18:40:27.924,-1.313000,2.413000,163.833000,0.093900,-0.308100,0.121900,1.312000,0.262000,-9.946000,-0.007935,0.177337,0.104563
1764076227952793679,2025-11-25 18:40:27.949,-1.316000,2.708000,163.954000,0.090500,-0.305200,0.120600,1.070000,0.328000,-9.984000,-0.004329,0.219891,0.077390
1764076227976934198,2025-11-25 18:40:27.974,-1.317000,3.035000,164.046000,0.089500,-0.308000,0.119600,0.787000,0.230000,-10.216000,-0.003009,0.230219,0.066654
1764076228001805716,2025-11-25 18:40:27.999,-1.322000,3.362000,164.114000,0.087000,-0.305200,0.122500,1.485000,0.460000,-10.082000,-0.007416,0.226755,0.045473
1764076228026881013,2025-11-25 18:40:28.024,-1.328000,3.693000,164.164000,0.086100,-0.306100,0.124500,1.455000,0.281000,-9.898000,-0.004107,0.237419,0.032318
1764076228053031327,2025-11-25 18:40:28.049,-1.330000,4.033000,164.198000,0.082600,-0.305100,0.122300,1.580000,-0.032000,-9.816000,-0.004825,0.234972,0.022576
1764076228080307976,2025-11-25 18:40:28.078,-1.334000,4.349000,164.227000,0.079800,-0.310600,0.121200,1.844000,0.109000,-10.158000,-0.001464,0.205634,0.019812
1764076228102027142,2025-11-25 18:40:28.099,-1.339000,4.627000,164.253000,0.081600,-0.308800,0.127400,1.984000,0.163000,-10.291000,-0.004591,0.181615,0.014879
1764076228127534235,2025-11-25 18:40:28.125,-1.343000,4.879000,164.277000,0.077300,-0.305000,0.124100,1.797000,0.167000,-10.164000,-0.004797,0.172768,0.022029
1764076228151398550,2025-11-25 18:40:28.148,-1.348000,5.098000,164.305000,0.078100,-0.309600,0.129300,2.144000,0.304000,-9.912000,-0.007033,0.144580,0.018524
1764076228179152031,2025-11-25 18:40:28.175,-1.353000,5.262000,164.336000,0.074500,-0.311400,0.120900,1.854000,0.306000,-9.855000,-0.004530,0.104348,0.020306
1764076228202509661,2025-11-25 18:40:28.199,-1.359000,5.387000,164.374000,0.075400,-0.308700,0.121900,1.811000,0.322000,-10.027000,-0.003412,0.073659,0.025362
1764076228228190957,2025-11-25 18:40:28.225,-1.367000,5.480000,164.406000,0.074500,-0.311400,0.125000,2.157000,0.273000,-10.223000,-0.007648,0.045916,0.018709
1764076228252187994,2025-11-25 18:40:28.249,-1.373000,5.517000,164.439000,0.077100,-0.315200,0.124100,2.026000,0.290000,-10.177000,-0.006300,0.008524,0.018603
1764076228279159105,2025-11-25 18:40:28.276,-1.379000,5.503000,164.462000,0.075400,-0.311400,0.126100,2.296000,0.221000,-10.021000,-0.005307,-0.022202,0.008525
1764076228303752235,2025-11-25 18:40:28.301,-1.384000,5.456000,164.480000,0.078100,-0.310600,0.125200,1.789000,0.254000,-10.002000,-0.003059,-0.037597,0.006720
1764076228331150105,2025-11-25 18:40:28.327,-1.388000,5.370000,164.485000,0.075500,-0.308700,0.126100,2.122000,0.226000,-10.146000,-0.005741,-0.074775,-0.003193
1764076228392369457,2025-11-25 18:40:28.390,-1.395000,5.070000,164.476000,0.076300,-0.307800,0.121000,1.833000,0.453000,-9.947000,-0.000422,-0.123581,-0.015714
1764076228401750753,2025-11-25 18:40:28.399,-1.395000,4.883000,164.462000,0.079200,-0.296700,0.121000,1.841000,0.196000,-9.988000,0.003066,-0.137225,-0.018272
1764076228427647679,2025-11-25 18:40:28.424,-1.393000,4.666000,164.441000,0.079900,-0.304100,0.120100,1.774000,0.243000,-10.061000,0.002907,-0.157686,-0.020094
1764076228455447475,2025-11-25 18:40:28.452,-1.391000,4.429000,164.420000,0.080700,-0.309700,0.123300,1.358000,0.084000,-10.004000,0.002750,-0.167967,-0.019385
1764076228478647605,2025-11-25 18:40:28.476,-1.387000,4.196000,164.396000,0.082600,-0.301400,0.123300,1.440000,0.247000,-9.992000,0.006825,-0.163692,-0.026664
1764076228502401198,2025-11-25 18:40:28.499,-1.379000,3.961000,164.371000,0.081700,-0.306000,0.121200,1.370000,0.233000,-9.989000,0.006044,-0.167052,-0.021986
1764076228527078772,2025-11-25 18:40:28.524,-1.369000,3.723000,164.346000,0.084200,-0.308800,0.120300,1.466000,0.185000,-10.065000,0.007202,-0.164773,-0.020324
1764076228554793698,2025-11-25 18:40:28.550,-1.359000,3.503000,164.324000,0.086000,-0.308900,0.121500,0.894000,0.302000,-10.045000,0.009354,-0.142311,-0.019053
1764076228578594698,2025-11-25 18:40:28.575,-1.346000,3.308000,164.297000,0.086100,-0.304200,0.121400,1.192000,0.226000,-9.939000,0.010972,-0.128667,-0.023726
1764076228603265975,2025-11-25 18:40:28.600,-1.329000,3.133000,164.274000,0.084200,-0.309800,0.120300,1.069000,0.175000,-9.926000,0.014375,-0.119393,-0.021362
1764076228627867346,2025-11-25 18:40:28.624,-1.313000,2.987000,164.255000,0.088800,-0.301500,0.121500,1.035000,0.257000,-10.094000,0.011560,-0.090868,-0.015468
1764076228653129309,2025-11-25 18:40:28.650,-1.296000,2.881000,164.232000,0.087700,-0.309800,0.119500,0.830000,0.054000,-10.024000,0.012262,-0.062050,-0.016867
1764076228680418938,2025-11-25 18:40:28.677,-1.279000,2.808000,164.212000,0.089400,-0.311700,0.120600,1.144000,0.118000,-10.156000,0.012759,-0.045187,-0.016685
1764076228701722068,2025-11-25 18:40:28.699,-1.264000,2.765000,164.194000,0.088800,-0.302400,0.120500,0.828000,0.352000,-9.902000,0.010278,-0.016803,-0.013257
1764076228728107346,2025-11-25 18:40:28.725,-1.248000,2.764000,164.170000,0.090600,-0.296000,0.115400,0.809000,0.102000,-9.991000,0.011748,0.013094,-0.017355
1764076228755696531,2025-11-25 18:40:28.753,-1.234000,2.804000,164.145000,0.086900,-0.307000,0.121500,1.068000,0.107000,-10.117000,0.009542,0.031674,-0.016936
1764076228777344123,2025-11-25 18:40:28.774,-1.223000,2.873000,164.121000,0.089500,-0.308000,0.121600,1.013000,0.108000,-10.156000,0.009757,0.056238,-0.016225
1764076228801699568,2025-11-25 18:40:28.799,-1.213000,2.972000,164.092000,0.089700,-0.302400,0.122600,0.973000,0.242000,-9.954000,0.007366,0.085149,-0.019895
1764076228827365846,2025-11-25 18:40:28.824,-1.202000,3.107000,164.059000,0.089700,-0.299600,0.120500,0.934000,0.120000,-10.066000,0.007659,0.099022,-0.023009
1764076228853128642,2025-11-25 18:40:28.849,-1.198000,3.262000,164.025000,0.087000,-0.301400,0.123500,1.221000,0.194000,-10.141000,0.004266,0.108307,-0.024067
1764076228878407031,2025-11-25 18:40:28.875,-1.195000,3.429000,163.990000,0.087100,-0.297700,0.121400,1.193000,0.186000,-10.121000,0.001243,0.122827,-0.023477
1764076228903635827,2025-11-25 18:40:28.901,-1.192000,3.614000,163.949000,0.086000,-0.307000,0.124500,1.286000,0.096000,-9.904000,0.004653,0.137514,-0.023642
1764076228928192105,2025-11-25 18:40:28.925,-1.190000,3.813000,163.907000,0.084300,-0.306000,0.119300,1.158000,0.136000,-10.105000,0.001857,0.133874,-0.031846
1764076228955513864,2025-11-25 18:40:28.952,-1.191000,4.008000,163.867000,0.086900,-0.306100,0.123500,1.700000,0.321000,-10.143000,0.002291,0.134301,-0.028309
1764076228978255234,2025-11-25 18:40:28.975,-1.192000,4.203000,163.821000,0.086100,-0.302400,0.122400,1.395000,0.116000,-9.901000,0.002013,0.142504,-0.028493
1764076229002323568,2025-11-25 18:40:29.000,-1.193000,4.400000,163.774000,0.084300,-0.305100,0.127500,1.157000,-0.152000,-9.977000,0.002053,0.133512,-0.036468
1764076229027514308,2025-11-25 18:40:29.024,-1.194000,4.584000,163.729000,0.085200,-0.307000,0.123500,1.750000,0.273000,-10.404000,0.002951,0.116053,-0.032020
1764076229052223642,2025-11-25 18:40:29.049,-1.194000,4.742000,163.683000,0.082600,-0.304100,0.126400,1.786000,0.334000,-9.952000,0.000846,0.105824,-0.030266
1764076229077810586,2025-11-25 18:40:29.074,-1.193000,4.870000,163.637000,0.083400,-0.306900,0.124400,1.280000,0.157000,-9.967000,0.004052,0.085626,-0.034171
1764076229107145938,2025-11-25 18:40:29.104,-1.190000,4.966000,163.592000,0.083400,-0.308800,0.125400,1.581000,0.192000,-10.264000,0.007273,0.045087,-0.036973
1764076229127598179,2025-11-25 18:40:29.124,-1.187000,5.014000,163.549000,0.080800,-0.308700,0.135600,1.874000,0.176000,-10.006000,0.006969,0.014971,-0.031531
1764076229153961142,2025-11-25 18:40:29.151,-1.183000,5.015000,163.508000,0.082600,-0.302300,0.125300,1.509000,-0.008000,-9.986000,0.004884,-0.008038,-0.032726
1764076229180036456,2025-11-25 18:40:29.176,-1.176000,4.972000,163.466000,0.083500,-0.303200,0.130500,1.441000,0.174000,-10.263000,0.005909,-0.042373,-0.033941
1764076229204324493,2025-11-25 18:40:29.201,-1.170000,4.884000,163.424000,0.084400,-0.303200,0.126500,1.468000,0.215000,-10.006000,0.009068,-0.077748,-0.035128
1764076229229386401,2025-11-25 18:40:29.226,-1.164000,4.750000,163.382000,0.086000,-0.307900,0.126600,1.343000,0.369000,-9.924000,0.005994,-0.102910,-0.034268
1764076229252333530,2025-11-25 18:40:29.249,-1.156000,4.586000,163.338000,0.087000,-0.303300,0.126600,0.989000,-0.083000,-10.220000,0.009517,-0.124848,-0.033297
1764076229278845919,2025-11-25 18:40:29.276,-1.150000,4.392000,163.295000,0.086900,-0.308900,0.125600,1.225000,0.120000,-10.345000,0.007142,-0.144599,-0.035509
1764076229303136586,2025-11-25 18:40:29.300,-1.146000,4.169000,163.251000,0.089600,-0.307000,0.129900,0.904000,0.214000,-10.074000,0.004714,-0.159426,-0.037692
1764076229327318456,2025-11-25 18:40:29.324,-1.140000,3.933000,163.205000,0.088700,-0.307000,0.128800,0.990000,0.188000,-9.934000,0.004462,-0.163449,-0.038693
1764076229394476438,2025-11-25 18:40:29.392,-1.131000,3.452000,163.107000,0.092200,-0.307100,0.124800,0.868000,0.264000,-10.163000,0.004813,-0.171137,-0.042765
1764076229403795345,2025-11-25 18:40:29.401,-1.128000,3.217000,163.050000,0.094800,-0.309000,0.126000,0.465000,0.196000,-10.106000,0.004563,-0.159839,-0.043720
1764076229427682919,2025-11-25 18:40:29.424,-1.125000,2.998000,162.988000,0.094800,-0.308100,0.126000,0.493000,0.145000,-10.277000,0.003382,-0.146535,-0.046402
1764076229452664030,2025-11-25 18:40:29.449,-1.122000,2.798000,162.924000,0.096600,-0.304400,0.116800,0.241000,0.196000,-10.276000,0.003666,-0.132058,-0.046112
1764076229479008808,2025-11-25 18:40:29.476,-1.121000,2.619000,162.855000,0.099400,-0.298900,0.120000,0.317000,0.257000,-10.202000,0.001251,-0.117972,-0.052311
1764076229504402067,2025-11-25 18:40:29.501,-1.120000,2.471000,162.779000,0.096600,-0.305300,0.124000,0.258000,0.278000,-10.215000,0.001254,-0.093220,-0.051705
1764076229526347234,2025-11-25 18:40:29.523,-1.120000,2.357000,162.699000,0.098400,-0.303500,0.121000,0.294000,0.325000,-10.234000,0.002629,-0.071309,-0.056970
1764076229550582104,2025-11-25 18:40:29.547,-1.120000,2.272000,162.616000,0.101000,-0.305400,0.122200,0.275000,0.263000,-10.192000,0.001712,-0.052121,-0.061789
1764076229579703938,2025-11-25 18:40:29.576,-1.122000,2.220000,162.527000,0.101900,-0.305400,0.122200,0.162000,0.192000,-10.134000,0.000741,-0.025242,-0.062843
1764076229602117734,2025-11-25 18:40:29.599,-1.125000,2.202000,162.436000,0.101100,-0.303600,0.122200,0.284000,0.191000,-10.168000,-0.000082,-0.002261,-0.063686
1764076229625750512,2025-11-25 18:40:29.623,-1.129000,2.211000,162.340000,0.099300,-0.303500,0.120000,0.182000,0.045000,-10.240000,-0.001747,0.013323,-0.068028
1764076229651796715,2025-11-25 18:40:29.649,-1.134000,2.246000,162.241000,0.101100,-0.301700,0.122200,0.310000,0.142000,-10.177000,-0.002500,0.030545,-0.067546
1764076229679549975,2025-11-25 18:40:29.677,-1.138000,2.308000,162.139000,0.104800,-0.295300,0.123300,0.121000,0.035000,-10.139000,-0.001075,0.052768,-0.069565
1764076229702176475,2025-11-25 18:40:29.699,-1.145000,2.392000,162.034000,0.102800,-0.302700,0.114000,0.433000,0.011000,-10.235000,-0.004017,0.064752,-0.072053
1764076229727263030,2025-11-25 18:40:29.724,-1.151000,2.486000,161.926000,0.102800,-0.303600,0.124300,0.367000,0.001000,-10.142000,-0.002204,0.069482,-0.073160
1764076229758941530,2025-11-25 18:40:29.756,-1.159000,2.589000,161.814000,0.104600,-0.300800,0.121300,0.476000,0.109000,-10.180000,-0.001419,0.079349,-0.075655
1764076229775098271,2025-11-25 18:40:29.772,-1.166000,2.700000,161.700000,0.102800,-0.305400,0.124300,0.485000,0.122000,-10.166000,-0.002057,0.082831,-0.079426
1764076229802395363,2025-11-25 18:40:29.800,-1.176000,2.808000,161.578000,0.101000,-0.305400,0.122200,0.478000,0.183000,-10.121000,-0.001949,0.075825,-0.083179
1764076229826805938,2025-11-25 18:40:29.823,-1.186000,2.905000,161.454000,0.103700,-0.305500,0.121300,0.515000,0.251000,-10.037000,-0.002425,0.069071,-0.086403
1764076229855034623,2025-11-25 18:40:29.851,-1.195000,2.995000,161.323000,0.103800,-0.299800,0.134600,0.664000,0.178000,-10.084000,-0.000128,0.059638,-0.089240
1764076229877028734,2025-11-25 18:40:29.874,-1.202000,3.069000,161.188000,0.104600,-0.301800,0.121300,0.756000,0.219000,-9.978000,0.000298,0.041918,-0.096260
1764076229902812141,2025-11-25 18:40:29.900,-1.208000,3.124000,161.046000,0.106400,-0.299900,0.126500,0.720000,0.011000,-10.035000,-0.000637,0.030061,-0.098807
1764076229926866400,2025-11-25 18:40:29.924,-1.215000,3.160000,160.902000,0.103800,-0.300800,0.122300,0.817000,0.157000,-10.149000,0.002834,0.020511,-0.103834
1764076229955735326,2025-11-25 18:40:29.953,-1.218000,3.179000,160.754000,0.106500,-0.301700,0.141000,0.736000,0.045000,-10.111000,0.004351,0.010989,-0.102534
1764076229976741771,2025-11-25 18:40:29.974,-1.217000,3.173000,160.604000,0.105500,-0.301800,0.123400,0.830000,0.169000,-10.158000,0.007862,-0.004102,-0.104852
1764076230002215215,2025-11-25 18:40:30.000,-1.213000,3.147000,160.454000,0.109000,-0.301800,0.121500,0.528000,0.131000,-10.093000,0.008864,-0.014887,-0.104182
1764076230026853567,2025-11-25 18:40:30.024,-1.209000,3.108000,160.299000,0.110800,-0.299100,0.124700,0.684000,0.158000,-10.044000,0.007848,-0.025961,-0.108276
1764076230051961011,2025-11-25 18:40:30.048,-1.203000,3.053000,160.146000,0.109900,-0.300900,0.122600,0.547000,-0.019000,-9.999000,0.011598,-0.042427,-0.105972
1764076230077797456,2025-11-25 18:40:30.074,-1.193000,2.983000,159.992000,0.110800,-0.298200,0.117500,0.688000,0.037000,-10.107000,0.013293,-0.055779,-0.108434
1764076230103095826,2025-11-25 18:40:30.100,-1.179000,2.903000,159.839000,0.112600,-0.300000,0.124800,0.474000,0.131000,-10.056000,0.015852,-0.060406,-0.108260
1764076230125917289,2025-11-25 18:40:30.123,-1.165000,2.818000,159.687000,0.114400,-0.297300,0.122800,0.730000,0.018000,-10.203000,0.015027,-0.061629,-0.107220
1764076230153071734,2025-11-25 18:40:30.149,-1.151000,2.724000,159.538000,0.113500,-0.299100,0.121700,0.524000,0.233000,-10.204000,0.016275,-0.064047,-0.103343
1764076230179742363,2025-11-25 18:40:30.176,-1.134000,2.629000,159.389000,0.114300,-0.299200,0.120800,0.429000,0.048000,-10.160000,0.016254,-0.055615,-0.103257
1764076230203008234,2025-11-25 18:40:30.200,-1.116000,2.540000,159.241000,0.117000,-0.297300,0.124000,0.379000,0.042000,-10.017000,0.016257,-0.053581,-0.104408
1764076230227044715,2025-11-25 18:40:30.224,-1.100000,2.456000,159.093000,0.117000,-0.297300,0.122900,0.264000,0.011000,-10.023000,0.014532,-0.058036,-0.102468
1764076230251705289,2025-11-25 18:40:30.248,-1.088000,2.378000,158.948000,0.119600,-0.298300,0.123100,0.393000,0.094000,-10.128000,0.012280,-0.054178,-0.103924
1764076230278869048,2025-11-25 18:40:30.276,-1.076000,2.317000,158.801000,0.120600,-0.295600,0.116900,0.364000,0.017000,-10.251000,0.014621,-0.038238,-0.101444
1764076230303130548,2025-11-25 18:40:30.300,-1.063000,2.268000,158.653000,0.121400,-0.299300,0.123200,0.468000,0.109000,-10.262000,0.010551,-0.028409,-0.101056
1764076230327514771,2025-11-25 18:40:30.324,-1.052000,2.224000,158.505000,0.123200,-0.297500,0.124300,0.224000,-0.006000,-10.088000,0.010687,-0.019150,-0.100278
1764076230392615363,2025-11-25 18:40:30.390,-1.042000,2.184000,158.209000,0.124200,-0.289100,0.122200,0.162000,0.078000,-10.094000,0.005861,-0.006343,-0.101271
1764076230402713419,2025-11-25 18:40:30.400,-1.040000,2.184000,158.058000,0.123200,-0.296500,0.124300,0.469000,0.156000,-10.428000,0.007377,-0.001655,-0.104788
1764076230428152752,2025-11-25 18:40:30.425,-1.037000,2.191000,157.908000,0.125000,-0.291900,0.120200,0.499000,0.058000,-10.279000,0.001852,0.012109,-0.102841
1764076230454196604,2025-11-25 18:40:30.451,-1.039000,2.212000,157.755000,0.126800,-0.296600,0.129600,0.226000,-0.033000,-10.025000,0.001961,0.029132,-0.102126
1764076230479606085,2025-11-25 18:40:30.476,-1.044000,2.242000,157.604000,0.126000,-0.291900,0.125400,0.283000,-0.045000,-9.958000,-0.000484,0.027099,-0.106401
1764076230500200789,2025-11-25 18:40:30.497,-1.049000,2.278000,157.450000,0.127700,-0.292000,0.124500,0.207000,-0.022000,-10.090000,0.003101,0.025268,-0.102141
1764076230527132826,2025-11-25 18:40:30.524,-1.053000,2.325000,157.295000,0.127700,-0.292900,0.126500,0.429000,0.162000,-10.275000,0.002333,0.030332,-0.109445
1764076230552174493,2025-11-25 18:40:30.549,-1.057000,2.377000,157.139000,0.128600,-0.292900,0.126600,0.591000,0.094000,-10.312000,-0.001301,0.039929,-0.107145
1764076230579341233,2025-11-25 18:40:30.577,-1.065000,2.425000,156.980000,0.130300,-0.292000,0.122600,0.356000,0.065000,-10.029000,-0.002877,0.040769,-0.108699
1764076230600026696,2025-11-25 18:40:30.597,-1.073000,2.470000,156.820000,0.129500,-0.292900,0.126600,0.355000,0.059000,-10.011000,-0.002287,0.035219,-0.112362
1764076230626431604,2025-11-25 18:40:30.623,-1.079000,2.517000,156.661000,0.130300,-0.292000,0.123600,0.455000,0.118000,-10.069000,0.001939,0.031083,-0.109750
1764076230652065752,2025-11-25 18:40:30.649,-1.085000,2.559000,156.503000,0.130300,-0.293000,0.119500,0.535000,0.109000,-10.162000,-0.000455,0.024906,-0.111201
1764076230678566048,2025-11-25 18:40:30.676,-1.092000,2.595000,156.340000,0.130400,-0.287400,0.119400,0.590000,0.169000,-10.132000,-0.001025,0.025424,-0.110090
1764076230702185585,2025-11-25 18:40:30.699,-1.102000,2.624000,156.178000,0.131300,-0.289200,0.121500,0.529000,0.054000,-10.041000,-0.003455,0.022539,-0.115249
1764076230726927307,2025-11-25 18:40:30.724,-1.107000,2.647000,156.017000,0.133200,-0.282700,0.137000,0.486000,0.087000,-10.020000,0.002590,0.016316,-0.115219
1764076230751946344,2025-11-25 18:40:30.748,-1.110000,2.661000,155.854000,0.133100,-0.286500,0.124700,0.455000,0.043000,-10.052000,0.003559,0.008584,-0.110187
1764076230779041863,2025-11-25 18:40:30.776,-1.113000,2.669000,155.690000,0.134800,-0.287400,0.125800,0.496000,0.076000,-10.166000,0.000534,0.002304,-0.111476
1764076230803683326,2025-11-25 18:40:30.801,-1.117000,2.674000,155.529000,0.135900,-0.276300,0.121700,0.569000,0.109000,-10.173000,0.001495,0.003188,-0.111469
1764076230828023770,2025-11-25 18:40:30.825,-1.119000,2.672000,155.364000,0.136600,-0.289300,0.127000,0.569000,0.116000,-10.145000,0.003030,0.000785,-0.115608
1764076230853425844,2025-11-25 18:40:30.850,-1.114000,2.661000,155.196000,0.138300,-0.288400,0.120900,0.476000,0.116000,-10.093000,0.006075,-0.004086,-0.120004
1764076230877845048,2025-11-25 18:40:30.875,-1.109000,2.650000,155.025000,0.138400,-0.283800,0.126000,0.490000,0.040000,-10.054000,0.009062,-0.007085,-0.120763
1764076230901488641,2025-11-25 18:40:30.899,-1.107000,2.635000,154.850000,0.141000,-0.287600,0.125100,0.454000,0.163000,-10.162000,0.004240,-0.011795,-0.122701
1764076230926643418,2025-11-25 18:40:30.923,-1.104000,2.614000,154.671000,0.137500,-0.287500,0.122900,0.472000,0.033000,-10.153000,0.007463,-0.014822,-0.118393
1764076230952134678,2025-11-25 18:40:30.948,-1.100000,2.589000,154.493000,0.139200,-0.287500,0.124000,0.429000,0.022000,-10.185000,0.008859,-0.014830,-0.127371
1764076230978335955,2025-11-25 18:40:30.976,-1.093000,2.561000,154.317000,0.141900,-0.283900,0.123100,0.364000,0.169000,-10.136000,0.009024,-0.014230,-0.127204
1764076231002686178,2025-11-25 18:40:31.000,-1.090000,2.534000,154.134000,0.143700,-0.286700,0.126300,0.347000,-0.031000,-10.186000,0.004288,-0.015679,-0.124475
1764076231026166270,2025-11-25 18:40:31.023,-1.088000,2.504000,153.955000,0.144600,-0.285800,0.124300,0.431000,0.062000,-10.127000,0.004402,-0.018296,-0.126121
1764076231052035363,2025-11-25 18:40:31.048,-1.083000,2.477000,153.770000,0.145500,-0.282100,0.122200,0.420000,0.058000,-10.111000,0.008802,-0.015699,-0.124238
1764076231078327585,2025-11-25 18:40:31.075,-1.077000,2.452000,153.587000,0.144500,-0.284900,0.117000,0.466000,0.027000,-10.159000,0.006728,-0.012593,-0.129368
1764076231103515603,2025-11-25 18:40:31.101,-1.075000,2.429000,153.404000,0.146400,-0.283000,0.121200,0.342000,0.227000,-10.110000,0.005782,-0.010379,-0.125995
1764076231128218955,2025-11-25 18:40:31.125,-1.073000,2.410000,153.218000,0.146500,-0.278400,0.123300,0.231000,0.076000,-10.080000,0.004731,-0.005955,-0.129014
1764076231156780344,2025-11-25 18:40:31.154,-1.071000,2.402000,153.036000,0.149000,-0.283100,0.121400,0.379000,0.061000,-10.143000,0.005594,-0.000921,-0.127727
1764076231177294733,2025-11-25 18:40:31.174,-1.067000,2.402000,152.855000,0.150000,-0.279400,0.126500,0.322000,0.000000,-10.163000,0.007879,0.004195,-0.123365
1764076231202436511,2025-11-25 18:40:31.199,-1.063000,2.409000,152.673000,0.150800,-0.283100,0.123500,0.473000,0.074000,-10.203000,0.004730,0.009315,-0.124951
1764076231225434307,2025-11-25 18:40:31.222,-1.061000,2.425000,152.494000,0.152600,-0.279400,0.117400,0.398000,0.030000,-10.108000,0.004069,0.019056,-0.122539
1764076231254329270,2025-11-25 18:40:31.252,-1.063000,2.445000,152.318000,0.153600,-0.272000,0.124600,0.372000,0.118000,-10.089000,0.001741,0.019381,-0.122864
1764076231276807140,2025-11-25 18:40:31.273,-1.059000,2.470000,152.137000,0.151700,-0.283100,0.125600,0.453000,0.073000,-10.152000,0.005078,0.019797,-0.121525
1764076231301009159,2025-11-25 18:40:31.298,-1.058000,2.496000,151.960000,0.152600,-0.281300,0.127700,0.411000,0.052000,-10.153000,0.002460,0.021974,-0.122037
1764076231326601307,2025-11-25 18:40:31.324,-1.060000,2.527000,151.788000,0.156100,-0.282300,0.124800,0.475000,0.149000,-10.077000,0.001843,0.027197,-0.120685
1764076231386419992,2025-11-25 18:40:31.384,-1.063000,2.564000,151.613000,0.157000,-0.279500,0.125900,0.388000,0.021000,-10.128000,0.002674,0.029878,-0.118831
1764076231395608085,2025-11-25 18:40:31.393,-1.065000,2.599000,151.442000,0.156100,-0.281400,0.120700,0.492000,0.048000,-10.102000,0.000531,0.026242,-0.118905
1764076231404950196,2025-11-25 18:40:31.402,-1.067000,2.635000,151.273000,0.155200,-0.281300,0.126800,0.396000,0.180000,-10.081000,0.003525,0.027808,-0.115805
1764076231426635548,2025-11-25 18:40:31.423,-1.068000,2.671000,151.100000,0.158000,-0.276700,0.131100,0.511000,0.059000,-10.150000,0.001691,0.027408,-0.121423
1764076231452414844,2025-11-25 18:40:31.449,-1.071000,2.709000,150.927000,0.157900,-0.276700,0.124900,0.554000,0.088000,-10.128000,0.002425,0.026555,-0.122445
1764076231477746140,2025-11-25 18:40:31.475,-1.074000,2.741000,150.758000,0.158900,-0.273000,0.129000,0.451000,0.042000,-10.160000,0.003346,0.025825,-0.116828
1764076231502059492,2025-11-25 18:40:31.499,-1.074000,2.770000,150.584000,0.158800,-0.278600,0.130100,0.549000,0.087000,-10.042000,0.003854,0.022731,-0.117780
1764076231525753640,2025-11-25 18:40:31.523,-1.075000,2.797000,150.411000,0.159700,-0.278600,0.128100,0.470000,-0.027000,-10.050000,0.005298,0.017692,-0.117443
1764076231552467381,2025-11-25 18:40:31.549,-1.078000,2.817000,150.243000,0.161600,-0.270300,0.127100,0.579000,0.036000,-10.121000,0.002732,0.013117,-0.118378
1764076231578221029,2025-11-25 18:40:31.575,-1.079000,2.833000,150.074000,0.162600,-0.264700,0.128100,0.558000,0.202000,-10.156000,0.003427,0.012266,-0.116726
1764076231602593548,2025-11-25 18:40:31.600,-1.080000,2.844000,149.901000,0.161500,-0.277700,0.129200,0.529000,-0.086000,-10.164000,0.004094,0.009725,-0.117740
1764076231627000696,2025-11-25 18:40:31.624,-1.079000,2.855000,149.734000,0.164200,-0.275000,0.129300,0.572000,0.127000,-10.075000,0.004937,0.007033,-0.117919
1764076231651322011,2025-11-25 18:40:31.648,-1.076000,2.860000,149.563000,0.163300,-0.275900,0.129300,0.530000,0.102000,-9.964000,0.004642,0.004288,-0.113628
1764076231678816973,2025-11-25 18:40:31.676,-1.076000,2.862000,149.392000,0.166000,-0.271300,0.130400,0.507000,-0.041000,-10.134000,0.003998,-0.001127,-0.119322
1764076231703119177,2025-11-25 18:40:31.700,-1.075000,2.860000,149.226000,0.165900,-0.274100,0.127300,0.534000,0.214000,-10.183000,0.006545,-0.001678,-0.117823
1764076231727472103,2025-11-25 18:40:31.724,-1.073000,2.853000,149.058000,0.167100,-0.260200,0.126200,0.504000,0.055000,-10.166000,0.006820,-0.000313,-0.116976
1764076231752604140,2025-11-25 18:40:31.749,-1.069000,2.846000,148.884000,0.166900,-0.271300,0.128400,0.515000,0.062000,-10.158000,0.005234,-0.003957,-0.117193
1764076231778761085,2025-11-25 18:40:31.776,-1.066000,2.838000,148.720000,0.168600,-0.271300,0.124300,0.474000,0.003000,-10.069000,0.006528,-0.004688,-0.112970
1764076231803105696,2025-11-25 18:40:31.800,-1.063000,2.825000,148.556000,0.170400,-0.272300,0.125500,0.539000,0.084000,-10.111000,0.006903,-0.008670,-0.115268
1764076231827920696,2025-11-25 18:40:31.825,-1.057000,2.811000,148.394000,0.169500,-0.270400,0.125400,0.457000,0.186000,-10.186000,0.007954,-0.007224,-0.112919
1764076231852894992,2025-11-25 18:40:31.849,-1.053000,2.796000,148.233000,0.170300,-0.273200,0.126500,0.502000,0.095000,-10.185000,0.005436,-0.009578,-0.112994
1764076231878148640,2025-11-25 18:40:31.875,-1.050000,2.780000,148.074000,0.172200,-0.268600,0.126600,0.539000,0.091000,-10.117000,0.005819,-0.007505,-0.111862
1764076231903422177,2025-11-25 18:40:31.901,-1.046000,2.765000,147.913000,0.172300,-0.261200,0.125500,0.434000,0.087000,-10.090000,0.006760,-0.005458,-0.107944
1764076231927596936,2025-11-25 18:40:31.924,-1.041000,2.753000,147.751000,0.173000,-0.269600,0.123500,0.518000,0.015000,-10.101000,0.006903,-0.009099,-0.111215
1764076231950224770,2025-11-25 18:40:31.947,-1.038000,2.740000,147.594000,0.174000,-0.266800,0.124600,0.559000,0.216000,-10.206000,0.006432,-0.006954,-0.109873
1764076231979110418,2025-11-25 18:40:31.976,-1.034000,2.730000,147.435000,0.174000,-0.266800,0.129700,0.438000,0.136000,-10.134000,0.005570,-0.001998,-0.110299
1764076232002021455,2025-11-25 18:40:31.999,-1.033000,2.721000,147.276000,0.175800,-0.265900,0.129800,0.511000,0.099000,-10.183000,0.005079,-0.005538,-0.109086
1764076232026309195,2025-11-25 18:40:32.023,-1.032000,2.710000,147.123000,0.175800,-0.267700,0.132900,0.421000,0.133000,-10.075000,0.004009,-0.005785,-0.107453
1764076232052367492,2025-11-25 18:40:32.048,-1.032000,2.699000,146.967000,0.176800,-0.259400,0.123600,0.452000,0.110000,-10.105000,0.004491,-0.003053,-0.110981
1764076232078357973,2025-11-25 18:40:32.075,-1.032000,2.691000,146.810000,0.176700,-0.265000,0.127800,0.489000,0.035000,-10.107000,0.002152,-0.001887,-0.104377
1764076232102827344,2025-11-25 18:40:32.100,-1.034000,2.686000,146.655000,0.178400,-0.263200,0.118600,0.458000,0.033000,-10.187000,0.003069,-0.001728,-0.107809
1764076232126874640,2025-11-25 18:40:32.124,-1.036000,2.681000,146.501000,0.179400,-0.262200,0.126900,0.560000,0.182000,-10.091000,0.000789,0.001224,-0.108865
1764076232150796881,2025-11-25 18:40:32.148,-1.037000,2.682000,146.346000,0.178500,-0.262200,0.121700,0.343000,-0.037000,-10.039000,0.001691,0.006156,-0.103705
1764076232178649251,2025-11-25 18:40:32.175,-1.042000,2.688000,146.193000,0.180300,-0.260400,0.130000,0.535000,0.104000,-10.191000,0.000176,0.005596,-0.105721
1764076232202917418,2025-11-25 18:40:32.200,-1.046000,2.696000,146.040000,0.182900,-0.259500,0.123900,0.494000,0.122000,-10.122000,0.001385,0.006321,-0.102952
1764076232228428769,2025-11-25 18:40:32.225,-1.049000,2.705000,145.890000,0.182900,-0.261400,0.121900,0.485000,0.104000,-10.063000,0.001551,0.010876,-0.103161
1764076232255607843,2025-11-25 18:40:32.253,-1.053000,2.718000,145.740000,0.183100,-0.258500,0.145600,0.466000,0.227000,-10.131000,0.001284,0.013206,-0.100839
1764076232277632510,2025-11-25 18:40:32.274,-1.058000,2.734000,145.589000,0.183800,-0.262300,0.128100,0.426000,0.049000,-10.116000,0.002329,0.009906,-0.106021
1764076232303989455,2025-11-25 18:40:32.301,-1.061000,2.747000,145.435000,0.184700,-0.259500,0.128200,0.595000,0.195000,-10.184000,0.002363,0.008098,-0.105687
1764076232329240436,2025-11-25 18:40:32.325,-1.063000,2.761000,145.290000,0.182000,-0.261400,0.129100,0.476000,0.165000,-10.134000,0.001274,0.015349,-0.099224
1764076232392627066,2025-11-25 18:40:32.390,-1.066000,2.784000,144.989000,0.185600,-0.260500,0.130300,0.526000,0.051000,-10.081000,0.002841,0.004069,-0.099523
1764076232402743029,2025-11-25 18:40:32.400,-1.069000,2.790000,144.842000,0.187400,-0.258700,0.127300,0.562000,0.073000,-10.185000,0.002151,0.005825,-0.101842
1764076232429351066,2025-11-25 18:40:32.426,-1.069000,2.799000,144.695000,0.186400,-0.260500,0.127200,0.516000,0.201000,-10.152000,0.003758,0.009080,-0.100933
1764076232453676788,2025-11-25 18:40:32.450,-1.068000,2.803000,144.549000,0.186500,-0.257700,0.128200,0.513000,0.088000,-10.229000,0.005663,0.005655,-0.100595
1764076232478832788,2025-11-25 18:40:32.476,-1.068000,2.802000,144.404000,0.188300,-0.256800,0.129400,0.504000,0.344000,-10.131000,0.005338,-0.000262,-0.103546
1764076232500970325,2025-11-25 18:40:32.498,-1.067000,2.803000,144.260000,0.189100,-0.257800,0.128400,0.468000,0.018000,-10.101000,0.005020,0.002719,-0.098456
1764076232526426677,2025-11-25 18:40:32.523,-1.065000,2.805000,144.113000,0.190900,-0.257800,0.127400,0.649000,0.118000,-10.104000,0.005537,0.003500,-0.103110
1764076232552810454,2025-11-25 18:40:32.549,-1.061000,2.805000,143.968000,0.191800,-0.256000,0.126400,0.388000,0.104000,-10.108000,0.009077,0.000928,-0.100625
1764076232577953843,2025-11-25 18:40:32.575,-1.059000,2.803000,143.821000,0.191900,-0.254100,0.130500,0.548000,0.306000,-10.154000,0.007668,0.000758,-0.103606
1764076232601945417,2025-11-25 18:40:32.599,-1.053000,2.803000,143.670000,0.191100,-0.249400,0.129400,0.522000,0.114000,-10.173000,0.007112,0.004677,-0.101149
1764076232626518991,2025-11-25 18:40:32.623,-1.047000,2.803000,143.524000,0.193500,-0.258800,0.133800,0.544000,-0.009000,-10.061000,0.007932,0.002380,-0.102526
1764076232651869140,2025-11-25 18:40:32.648,-1.041000,2.799000,143.377000,0.193800,-0.246700,0.131600,0.378000,0.144000,-9.960000,0.009843,0.000109,-0.104275
1764076232679545232,2025-11-25 18:40:32.677,-1.034000,2.802000,143.230000,0.194600,-0.252300,0.130700,0.529000,0.171000,-10.147000,0.009080,0.001826,-0.101497
1764076232701836065,2025-11-25 18:40:32.699,-1.028000,2.808000,143.081000,0.191900,-0.255000,0.130500,0.565000,0.288000,-10.286000,0.008463,0.005446,-0.099296
1764076232726723454,2025-11-25 18:40:32.724,-1.021000,2.811000,142.934000,0.194500,-0.256000,0.130700,0.511000,0.011000,-10.197000,0.007199,0.006320,-0.099655
1764076232750994565,2025-11-25 18:40:32.748,-1.013000,2.812000,142.790000,0.195400,-0.255100,0.126600,0.469000,0.023000,-10.018000,0.008786,0.007531,-0.101750
1764076232775177825,2025-11-25 18:40:32.772,-1.007000,2.815000,142.647000,0.196300,-0.255100,0.130800,0.429000,0.096000,-9.993000,0.008140,0.001225,-0.098594
1764076232801014454,2025-11-25 18:40:32.798,-1.001000,2.817000,142.509000,0.197400,-0.243000,0.131800,0.564000,0.083000,-10.154000,0.008341,-0.003731,-0.098299
1764076232827169084,2025-11-25 18:40:32.824,-0.997000,2.817000,142.367000,0.197200,-0.250500,0.128700,0.534000,0.142000,-10.365000,0.010046,-0.000060,-0.096105
1764076232851571991,2025-11-25 18:40:32.848,-0.994000,2.814000,142.231000,0.199800,-0.252400,0.130900,0.679000,0.210000,-10.299000,0.003695,0.003566,-0.092156
1764076232877531510,2025-11-25 18:40:32.874,-0.992000,2.804000,142.098000,0.198100,-0.250500,0.130800,0.333000,0.023000,-9.927000,0.003745,0.001265,-0.090182
1764076232902279288,2025-11-25 18:40:32.899,-0.991000,2.792000,141.967000,0.199000,-0.251400,0.130900,0.445000,0.146000,-9.952000,0.003761,-0.007832,-0.090859
1764076232926370621,2025-11-25 18:40:32.923,-0.993000,2.780000,141.838000,0.198100,-0.252400,0.128800,0.377000,-0.003000,-10.037000,0.003876,-0.015674,-0.088304
1764076232950932639,2025-11-25 18:40:32.948,-0.996000,2.772000,141.709000,0.200900,-0.241300,0.128800,0.714000,0.193000,-10.259000,0.004860,-0.010571,-0.090466
1764076232975669047,2025-11-25 18:40:32.973,-0.998000,2.768000,141.582000,0.200000,-0.243100,0.126700,0.624000,0.086000,-10.398000,0.004816,0.000653,-0.088380
1764076233001745491,2025-11-25 18:40:32.999,-1.000000,2.758000,141.461000,0.200700,-0.247800,0.118600,0.559000,0.236000,-10.208000,-0.000144,0.003568,-0.086273
1764076233025961232,2025-11-25 18:40:33.023,-1.005000,2.747000,141.339000,0.201700,-0.245900,0.127900,0.162000,0.075000,-9.908000,-0.000342,0.003268,-0.082042
1764076233050436473,2025-11-25 18:40:33.048,-1.010000,2.739000,141.220000,0.202600,-0.245900,0.124800,0.441000,0.186000,-9.939000,0.001264,-0.002768,-0.082971
1764076233078217602,2025-11-25 18:40:33.075,-1.015000,2.736000,141.100000,0.203700,-0.237600,0.130000,0.497000,0.129000,-10.154000,-0.000289,-0.008816,-0.082428
1764076233102905639,2025-11-25 18:40:33.100,-1.019000,2.732000,140.984000,0.203500,-0.245000,0.131100,0.654000,0.212000,-10.208000,0.001040,-0.006981,-0.079744
1764076233127964380,2025-11-25 18:40:33.124,-1.024000,2.731000,140.866000,0.203500,-0.243200,0.129000,0.465000,0.103000,-10.096000,-0.001008,0.002604,-0.080877
1764076233156474232,2025-11-25 18:40:33.154,-1.028000,2.736000,140.752000,0.203500,-0.245000,0.133100,0.437000,0.164000,-10.016000,0.000643,0.006075,-0.078840
1764076233177425658,2025-11-25 18:40:33.174,-1.031000,2.742000,140.642000,0.206100,-0.245100,0.127100,0.408000,0.059000,-10.103000,0.001366,0.004952,-0.078923
1764076233202225602,2025-11-25 18:40:33.199,-1.031000,2.747000,140.532000,0.204300,-0.247800,0.129100,0.450000,0.050000,-10.206000,0.001973,0.004953,-0.077696
1764076233228599010,2025-11-25 18:40:33.225,-1.031000,2.755000,140.424000,0.206200,-0.243200,0.132200,0.607000,0.053000,-10.166000,0.002476,0.010054,-0.074564
1764076233254633084,2025-11-25 18:40:33.251,-1.033000,2.763000,140.319000,0.206200,-0.243200,0.128100,0.400000,0.066000,-10.178000,0.001583,0.012279,-0.071252
1764076233278383602,2025-11-25 18:40:33.275,-1.034000,2.768000,140.218000,0.207100,-0.240400,0.127100,0.538000,0.030000,-10.105000,0.005068,0.009553,-0.067943
1764076233303300584,2025-11-25 18:40:33.300,-1.031000,2.776000,140.115000,0.207900,-0.244200,0.131300,0.267000,0.094000,-9.989000,0.005926,0.009588,-0.067605
1764076233331487195,2025-11-25 18:40:33.329,-1.026000,2.787000,140.016000,0.207900,-0.245100,0.128200,0.503000,0.188000,-10.118000,0.007245,0.006212,-0.068330
1764076233393033084,2025-11-25 18:40:33.391,-1.021000,2.803000,139.824000,0.207100,-0.241400,0.131200,0.618000,0.300000,-10.130000,0.005537,0.004974,-0.065506
