Timestamp,Time,Roll,Pitch,Yaw,Velocity_Increment_X,Velocity_Increment_Y,Velocity_Increment_Z,Acc_X,Acc_Y,Acc_Z,Gyro_X,Gyro_Y,Gyro_Z,Mag_X,Mag_Y,Mag_Z,Pressure
1764076212070368596,2025-11-25 18:40:12.067,0.707499,0.443232,159.364410,0.007007,0.009790,0.978636,0.080184,0.142399,9.775222,0.002903,0.000689,0.007387,0.809502,-0.329917,-1.207149,100278.0000
1764076212175049763,2025-11-25 18:40:12.166,0.725150,0.443765,159.293213,0.007630,0.009925,0.978861,0.061252,0.019610,9.779550,0.005688,0.002030,0.007841,0.810018,-0.326053,-1.205290,100282.0000
1764076212280759967,2025-11-25 18:40:12.268,0.756156,0.436988,159.223404,0.007853,0.011512,0.978927,0.083839,0.051994,9.827980,0.001422,0.003252,0.002569,0.808050,-0.331834,-1.207099,100279.0000
1764076212366914615,2025-11-25 18:40:12.360,0.782627,0.424717,159.145157,0.007139,0.013282,0.978777,0.080938,0.209576,9.789767,0.006131,0.000217,0.007040,0.809031,-0.330366,-1.205691,100283.0000
1764076212476245226,2025-11-25 18:40:12.469,0.789486,0.409593,159.062439,0.006731,0.013765,0.978945,0.063886,0.197724,9.767761,0.003497,-0.000612,0.010958,0.809027,-0.332734,-1.204692,100281.0000
1764076212576948318,2025-11-25 18:40:12.570,0.779908,0.401548,158.981323,0.006092,0.013708,0.978681,0.048039,0.088828,9.782408,-0.002872,0.000941,0.009135,0.808061,-0.331804,-1.205655,100280.0000
1764076212675878114,2025-11-25 18:40:12.669,0.768490,0.404419,158.901062,0.005650,0.012885,0.978436,0.063821,0.036931,9.811504,-0.005571,0.002094,0.006094,0.806138,-0.333692,-1.204153,100282.0000
1764076212772478337,2025-11-25 18:40:12.766,0.761618,0.418312,158.827301,0.005647,0.011874,0.978116,0.066622,0.117142,9.784805,-0.003191,-0.001754,0.003687,0.806617,-0.332755,-1.205137,100281.0000
1764076212872952003,2025-11-25 18:40:12.866,0.757277,0.437546,158.752014,0.006599,0.011785,0.978216,0.059371,0.203820,9.765852,0.006030,-0.003946,0.007554,0.805661,-0.332272,-1.204649,100280.0000
1764076212972028762,2025-11-25 18:40:12.966,0.758570,0.455439,158.677719,0.007296,0.011464,0.978537,0.076137,0.137832,9.780138,-0.002669,-0.005085,0.006246,0.805159,-0.333270,-1.206553,100281.0000
1764076213073161410,2025-11-25 18:40:13.066,0.759066,0.462416,158.597855,0.007695,0.012142,0.979093,0.084113,0.028519,9.796281,-0.001201,0.001027,0.008521,0.804681,-0.332795,-1.206553,100281.0000
1764076213172818799,2025-11-25 18:40:13.166,0.753151,0.460703,158.518982,0.007857,0.012304,0.979325,0.065792,0.054112,9.790854,0.000523,0.002163,0.006304,0.804203,-0.332786,-1.206065,100283.0000
1764076213273383392,2025-11-25 18:40:13.266,0.746471,0.451517,158.438782,0.007952,0.011757,0.979626,0.068245,0.179453,9.806039,0.000922,-0.000613,0.004311,0.806100,-0.335207,-1.207982,100284.0000
1764076213380196929,2025-11-25 18:40:13.373,0.751395,0.436372,158.358032,0.007388,0.010799,0.979496,0.091799,0.195013,9.776981,0.005156,0.003309,0.009540,0.807074,-0.335172,-1.206552,100286.0000
1764076213469837318,2025-11-25 18:40:13.467,0.765227,0.421337,158.281540,0.006854,0.010929,0.979152,0.045770,0.079534,9.761888,-0.001905,0.002773,0.007852,0.804707,-0.331311,-1.204168,100284.0000
1764076213572556336,2025-11-25 18:40:13.569,0.792562,0.412677,158.207779,0.006521,0.012190,0.978409,0.065823,0.046456,9.794578,0.000551,0.002369,0.007473,0.802282,-0.335143,-1.204074,100280.0000
1764076213674521188,2025-11-25 18:40:13.670,0.814773,0.407843,158.131744,0.005844,0.013534,0.977663,0.085495,0.132697,9.804794,0.002794,-0.000012,0.003532,0.803717,-0.336102,-1.204562,100282.0000
1764076213771368669,2025-11-25 18:40:13.766,0.817598,0.414096,158.054459,0.005923,0.014526,0.977405,0.057275,0.236033,9.757807,0.001314,-0.002123,0.003600,0.804187,-0.337543,-1.205029,100282.0000
1764076213872261503,2025-11-25 18:40:13.866,0.801523,0.429741,157.974716,0.005737,0.014440,0.977520,0.048346,0.198999,9.768825,0.000820,-0.004855,0.009663,0.802751,-0.338474,-1.203548,100281.0000
1764076213972462706,2025-11-25 18:40:13.966,0.765818,0.447424,157.898682,0.006487,0.012836,0.978453,0.068237,0.036790,9.793941,-0.007817,-0.002691,0.008402,0.803229,-0.335179,-1.206014,100277.0000
1764076214067293058,2025-11-25 18:40:14.064,0.735565,0.467906,157.825256,0.007292,0.011152,0.979167,0.072181,-0.001781,9.796432,-0.003854,-0.003426,0.004580,0.802730,-0.338058,-1.206444,100282.0000
1764076214175376151,2025-11-25 18:40:14.167,0.729712,0.476685,157.753662,0.008060,0.010074,0.979652,0.112397,0.129573,9.792959,0.000485,-0.001740,0.003472,0.799359,-0.337138,-1.207372,100277.0000
1764076214269416576,2025-11-25 18:40:14.266,0.743595,0.474987,157.678925,0.008041,0.009612,0.979728,0.093271,0.193902,9.782833,0.003431,0.001868,0.010795,0.803707,-0.336600,-1.205518,100283.0000
1764076214370122891,2025-11-25 18:40:14.366,0.777110,0.458504,157.604065,0.008213,0.010325,0.979056,0.060043,0.100835,9.784200,0.008434,0.004186,0.010885,0.803204,-0.339488,-1.206429,100285.0000
1764076214474185373,2025-11-25 18:40:14.467,0.808704,0.440453,157.527740,0.007352,0.012388,0.978733,0.073259,0.045102,9.812193,0.006037,0.005087,0.007164,0.802747,-0.339897,-1.203045,100286.0000
1764076214572029465,2025-11-25 18:40:14.568,0.827050,0.423262,157.451080,0.006149,0.014499,0.977998,0.052773,0.107819,9.803769,0.002645,0.002570,0.007965,0.803702,-0.339913,-1.204022,100283.0000
1764076214671293891,2025-11-25 18:40:14.666,0.825345,0.414469,157.376419,0.005667,0.014868,0.977869,0.044261,0.210040,9.767294,-0.005475,0.002402,0.004990,0.803219,-0.338035,-1.205489,100279.0000
1764076214778856613,2025-11-25 18:40:14.768,0.803845,0.420299,157.304703,0.005511,0.013903,0.977675,0.053309,0.193064,9.761669,-0.005296,-0.003230,0.005380,0.799342,-0.342839,-1.205840,100282.0000
1764076214869872280,2025-11-25 18:40:14.866,0.776501,0.437884,157.236191,0.005778,0.012471,0.977802,0.067802,0.076092,9.794429,-0.003518,-0.005376,0.008860,0.800314,-0.339979,-1.206379,100276.0000
1764076214970228650,2025-11-25 18:40:14.966,0.757992,0.456963,157.169052,0.006537,0.011330,0.978198,0.054988,0.020230,9.786929,-0.001977,-0.003078,0.006562,0.799830,-0.341404,-1.205868,100282.0000
1764076215070213483,2025-11-25 18:40:15.066,0.754428,0.475475,157.098434,0.007505,0.010748,0.979087,0.072012,0.104395,9.812548,0.004778,-0.004368,0.005204,0.800291,-0.343811,-1.206802,100278.0000
1764076215169871743,2025-11-25 18:40:15.166,0.769603,0.483998,157.024063,0.008231,0.010652,0.979649,0.086392,0.183266,9.789923,0.003869,-0.004510,0.005411,0.801251,-0.342871,-1.207794,100287.0000
1764076215269953372,2025-11-25 18:40:15.266,0.789359,0.479741,156.950775,0.008103,0.011027,0.980095,0.085615,0.175112,9.776772,0.008790,0.001724,0.009228,0.800808,-0.341359,-1.203957,100276.0000
1764076215371630409,2025-11-25 18:40:15.367,0.800869,0.466179,156.877655,0.007809,0.012369,0.979438,0.049560,0.108584,9.767991,0.008440,0.002034,0.007819,0.798850,-0.344285,-1.206292,100278.0000
1764076215470637483,2025-11-25 18:40:15.466,0.807441,0.449782,156.808380,0.007089,0.012933,0.978822,0.082250,0.035937,9.806559,0.000867,0.003737,0.005877,0.799832,-0.340926,-1.205876,100282.0000
1764076215570413835,2025-11-25 18:40:15.566,0.808728,0.437534,156.738983,0.005933,0.013043,0.978072,0.075356,0.060673,9.797753,-0.001660,0.000129,0.000369,0.798374,-0.344744,-1.205315,100284.0000
1764076215669786261,2025-11-25 18:40:15.666,0.810886,0.432632,156.670761,0.006119,0.013055,0.977810,0.050922,0.161387,9.781134,-0.005118,0.001130,0.001603,0.799357,-0.341386,-1.204899,100278.0000
1764076215770150946,2025-11-25 18:40:15.766,0.808211,0.440582,156.604172,0.006391,0.012948,0.977811,0.065716,0.227042,9.782839,-0.006954,-0.002464,0.002684,0.799347,-0.341884,-1.205854,100280.0000
1764076215869583057,2025-11-25 18:40:15.866,0.801705,0.449343,156.535660,0.006746,0.012221,0.978150,0.057547,0.168642,9.757671,-0.000159,-0.003448,0.005410,0.798859,-0.344732,-1.204841,100280.0000
1764076215969241853,2025-11-25 18:40:15.966,0.792208,0.451791,156.468781,0.007545,0.011531,0.978919,0.077981,0.047799,9.800566,-0.002364,0.002624,0.004837,0.797889,-0.344756,-1.205789,100282.0000
1764076216070364446,2025-11-25 18:40:16.066,0.785523,0.454552,156.403809,0.007449,0.011409,0.979204,0.075723,0.016548,9.809623,-0.006199,-0.000778,0.003926,0.799839,-0.341851,-1.204417,100282.0000
1764076216170150335,2025-11-25 18:40:16.166,0.786811,0.448423,156.335419,0.007224,0.010924,0.979020,0.068599,0.071314,9.788618,0.002126,0.000763,0.003813,0.799817,-0.344738,-1.205336,100288.0000
1764076216269621131,2025-11-25 18:40:16.266,0.795879,0.449995,156.267944,0.006764,0.011760,0.978979,0.059040,0.187133,9.796681,-0.001149,0.000625,0.000557,0.797411,-0.344749,-1.205301,100277.0000
1764076216370026631,2025-11-25 18:40:16.366,0.810361,0.448995,156.202820,0.006392,0.012471,0.978347,0.065772,0.259363,9.782835,0.008891,-0.001627,0.008985,0.797881,-0.344777,-1.206752,100280.0000
1764076216470438760,2025-11-25 18:40:16.466,0.824107,0.458106,156.140732,0.006415,0.013040,0.978065,0.091932,0.161809,9.770785,0.011270,-0.000484,0.005365,0.795496,-0.345204,-1.203820,100284.0000
1764076216570577297,2025-11-25 18:40:16.566,0.825331,0.466934,156.082550,0.007149,0.013282,0.978060,0.062543,0.059719,9.761917,0.003170,-0.003618,0.006603,0.797855,-0.349086,-1.207167,100285.0000
1764076216669138760,2025-11-25 18:40:16.666,0.813820,0.474752,156.019211,0.007511,0.012940,0.978723,0.065997,0.028359,9.807363,-0.005624,-0.002521,0.003918,0.799347,-0.343297,-1.204870,100284.0000
1764076216769979853,2025-11-25 18:40:16.766,0.792738,0.472969,155.959305,0.008119,0.012043,0.979081,0.109833,0.069562,9.809988,-0.009527,0.000450,0.002693,0.796430,-0.348574,-1.205228,100283.0000
1764076216870205686,2025-11-25 18:40:16.866,0.778284,0.459720,155.903137,0.007661,0.011068,0.979384,0.062217,0.145613,9.792779,-0.001877,0.002855,0.003514,0.797389,-0.346222,-1.207204,100278.0000
1764076216970296667,2025-11-25 18:40:16.966,0.780208,0.443580,155.843857,0.007238,0.010225,0.979649,0.077624,0.212897,9.787479,0.001874,0.002366,0.003879,0.797393,-0.347625,-1.205738,100287.0000
1764076217069871612,2025-11-25 18:40:17.066,0.803791,0.430115,155.784042,0.006135,0.010503,0.979020,0.051463,0.141009,9.762552,0.008769,-0.000041,0.005179,0.798370,-0.344754,-1.205796,100279.0000
1764076217169517945,2025-11-25 18:40:17.166,0.836204,0.429841,155.725174,0.005559,0.012573,0.977825,0.039507,0.090171,9.761222,0.008516,-0.001366,0.005835,0.795470,-0.346688,-1.206205,100286.0000
1764076217270011186,2025-11-25 18:40:17.266,0.857984,0.439728,155.668289,0.005325,0.014566,0.976979,0.054904,0.059077,9.779462,0.004599,-0.003539,0.005715,0.794983,-0.346233,-1.207168,100286.0000
1764076217369951852,2025-11-25 18:40:17.366,0.850288,0.458560,155.609390,0.006163,0.015225,0.977110,0.070364,0.107645,9.806758,-0.002639,-0.005499,0.002460,0.796931,-0.346163,-1.204309,100284.0000
1764076217470041278,2025-11-25 18:40:17.466,0.819054,0.475666,155.556137,0.007224,0.014595,0.977806,0.078163,0.188458,9.774859,-0.004352,-0.000577,0.000149,0.798370,-0.346167,-1.204811,100283.0000
1764076217569822000,2025-11-25 18:40:17.566,0.774152,0.486437,155.501465,0.008289,0.011818,0.978983,0.075760,0.199859,9.773635,-0.011775,-0.001484,0.005309,0.796432,-0.348097,-1.205235,100284.0000
1764076217669577408,2025-11-25 18:40:17.666,0.745799,0.481092,155.448593,0.008743,0.009387,0.980292,0.070139,0.129396,9.779353,-0.004539,0.000433,0.005284,0.796912,-0.349040,-1.204746,100274.0000
1764076217771503760,2025-11-25 18:40:17.766,0.750353,0.464469,155.395706,0.008446,0.008028,0.981040,0.064444,0.024851,9.795933,0.004116,0.004938,0.005509,0.795010,-0.343804,-1.205280,100283.0000
1764076217870380722,2025-11-25 18:40:17.866,0.787112,0.441503,155.341415,0.007187,0.009021,0.980076,0.062345,0.009263,9.815975,0.013047,0.001437,0.004364,0.797385,-0.348590,-1.206205,100282.0000
1764076217970716500,2025-11-25 18:40:17.966,0.844467,0.427433,155.288254,0.005892,0.011331,0.979036,0.055525,0.108422,9.797136,0.014584,0.001910,0.000092,0.797388,-0.347167,-1.206708,100282.0000
1764076218073143759,2025-11-25 18:40:18.066,0.882779,0.423418,155.234528,0.004924,0.014609,0.977407,0.051179,0.222209,9.769798,0.001961,-0.003012,0.002745,0.795967,-0.348058,-1.203302,100280.0000
1764076218169751037,2025-11-25 18:40:18.166,0.888967,0.433717,155.182922,0.005269,0.016091,0.976492,0.055156,0.246860,9.742501,-0.004420,-0.003256,0.002095,0.795458,-0.348132,-1.206665,100284.0000
1764076218269898685,2025-11-25 18:40:18.266,0.860586,0.449695,155.134323,0.006484,0.015816,0.976839,0.055163,0.166606,9.750344,-0.007638,-0.003598,0.001692,0.795944,-0.348119,-1.206190,100282.0000
1764076218370037222,2025-11-25 18:40:18.366,0.812677,0.463763,155.086884,0.007702,0.013569,0.977624,0.069380,0.067182,9.803290,-0.007416,-0.002847,0.002400,0.793551,-0.348567,-1.204223,100287.0000
1764076218470535833,2025-11-25 18:40:18.466,0.774793,0.465390,155.036819,0.008103,0.010646,0.979059,0.103071,0.011583,9.805663,-0.001232,0.001611,0.002310,0.794980,-0.347656,-1.206665,100280.0000
1764076218570120870,2025-11-25 18:40:18.566,0.760032,0.457985,154.985062,0.007962,0.009003,0.980274,0.083957,0.044818,9.835487,0.009332,0.000402,0.001949,0.795001,-0.348072,-1.203769,100281.0000
1764076218670028703,2025-11-25 18:40:18.666,0.780192,0.450226,154.930634,0.007154,0.008896,0.980461,0.069893,0.138445,9.808989,0.005221,-0.000166,0.003074,0.794983,-0.348591,-1.205688,100278.0000
1764076218770000981,2025-11-25 18:40:18.766,0.815931,0.444820,154.877213,0.006644,0.010614,0.979747,0.055594,0.195231,9.768204,0.005359,-0.000066,0.001435,0.795458,-0.350489,-1.205184,100280.0000
1764076218870047277,2025-11-25 18:40:18.866,0.844660,0.446937,154.829193,0.006118,0.012776,0.978857,0.051661,0.188923,9.772310,0.000651,0.000365,0.003513,0.795950,-0.349044,-1.204732,100280.0000
1764076218970218037,2025-11-25 18:40:18.966,0.858290,0.449819,154.781693,0.006684,0.014079,0.977547,0.060965,0.086518,9.752150,0.005085,-0.000242,0.001813,0.794496,-0.350494,-1.205170,100283.0000
1764076219069859166,2025-11-25 18:40:19.066,0.852193,0.453403,154.734543,0.007279,0.014102,0.977405,0.066461,0.041742,9.777143,-0.003558,0.002877,0.003679,0.795950,-0.349044,-1.204732,100283.0000
1764076219170147092,2025-11-25 18:40:19.166,0.837570,0.448690,154.687515,0.007835,0.013206,0.977628,0.084874,0.090091,9.805461,-0.000327,0.001854,0.001241,0.795940,-0.351900,-1.204206,100281.0000
1764076219269625759,2025-11-25 18:40:19.266,0.826125,0.441640,154.640732,0.007689,0.011871,0.978329,0.090816,0.176985,9.796894,0.001155,-0.000219,-0.002112,0.795496,-0.346617,-1.202836,100284.0000
1764076219370583907,2025-11-25 18:40:19.366,0.828580,0.434576,154.591934,0.007051,0.011226,0.979058,0.065812,0.224540,9.802149,0.001500,-0.000043,0.003854,0.796903,-0.347180,-1.207182,100280.0000
1764076219470619462,2025-11-25 18:40:19.466,0.833945,0.425817,154.546616,0.006117,0.011640,0.979172,0.081103,0.165353,9.781130,-0.002784,0.001247,0.001463,0.794517,-0.348552,-1.203755,100282.0000
1764076219570528610,2025-11-25 18:40:19.566,0.835765,0.427297,154.502655,0.005569,0.012634,0.979231,0.069986,0.081096,9.795551,-0.001966,0.002614,0.004956,0.793059,-0.350012,-1.204675,100281.0000
1764076219670493555,2025-11-25 18:40:19.666,0.827800,0.441671,154.460938,0.006229,0.012946,0.978743,0.064815,0.041286,9.797068,0.002064,-0.000629,0.003006,0.794509,-0.348573,-1.204718,100276.0000
1764076219770804851,2025-11-25 18:40:19.766,0.810114,0.459991,154.418320,0.007103,0.012827,0.978517,0.091481,0.066795,9.791781,0.001374,-0.005271,0.003057,0.796924,-0.346651,-1.204783,100290.0000
1764076219870108832,2025-11-25 18:40:19.866,0.796171,0.473874,154.371674,0.007957,0.011521,0.978436,0.086951,0.156633,9.778505,0.000251,-0.000690,-0.001937,0.794982,-0.349536,-1.205192,100277.0000
1764076219970042888,2025-11-25 18:40:19.966,0.798903,0.478382,154.325363,0.008763,0.010821,0.978948,0.074546,0.217220,9.771121,0.010196,0.002504,-0.001024,0.793544,-0.350000,-1.204201,100286.0000
1764076220070337814,2025-11-25 18:40:20.066,0.816087,0.462177,154.279633,0.008932,0.010815,0.978893,0.062456,0.150540,9.765612,0.002386,0.005405,0.006307,0.793569,-0.348049,-1.202304,100286.0000
1764076220170002703,2025-11-25 18:40:20.166,0.845991,0.437874,154.233932,0.007548,0.011811,0.979088,0.060185,0.111285,9.788751,0.003883,0.003596,0.005163,0.796424,-0.350475,-1.204717,100280.0000
1764076220269429425,2025-11-25 18:40:20.266,0.861420,0.418923,154.196823,0.006005,0.013252,0.978621,0.069723,0.050439,9.805486,0.002952,-0.002540,0.003917,0.797382,-0.349068,-1.206198,100282.0000
1764076220369238795,2025-11-25 18:40:20.366,0.860382,0.408614,154.158417,0.004946,0.014819,0.977902,0.042856,0.090595,9.789480,-0.001411,-0.000647,-0.003390,0.794030,-0.349042,-1.204222,100283.0000
1764076220470472128,2025-11-25 18:40:20.466,0.842833,0.419594,154.121765,0.005038,0.013967,0.977559,0.056900,0.159933,9.780258,-0.006155,-0.004418,-0.002495,0.796924,-0.347596,-1.204287,100275.0000
1764076220569594332,2025-11-25 18:40:20.566,0.815153,0.442510,154.081345,0.005734,0.012232,0.977664,0.057301,0.196404,9.757159,-0.004481,-0.005070,0.003442,0.795474,-0.348091,-1.204739,100282.0000
1764076220670818443,2025-11-25 18:40:20.666,0.798032,0.471016,154.035568,0.007133,0.011027,0.978529,0.091426,0.168979,9.783764,-0.000539,-0.003914,0.002124,0.796426,-0.348584,-1.205709,100284.0000
1764076220769934517,2025-11-25 18:40:20.766,0.801359,0.487300,153.992371,0.008640,0.010261,0.979133,0.055254,0.072218,9.798311,0.008538,-0.000750,0.003745,0.793531,-0.348618,-1.206630,100278.0000
1764076220870276906,2025-11-25 18:40:20.866,0.820373,0.485778,153.952438,0.009333,0.010749,0.979712,0.084550,0.028566,9.802198,0.007221,0.000909,0.002181,0.794052,-0.347569,-1.202318,100280.0000
1764076220970458239,2025-11-25 18:40:20.966,0.841728,0.462858,153.914841,0.009014,0.011992,0.979657,0.085424,0.063308,9.810888,0.006746,0.000138,-0.000228,0.796432,-0.350454,-1.203754,100284.0000
1764076221070519924,2025-11-25 18:40:21.066,0.854261,0.439042,153.878799,0.007156,0.013638,0.978915,0.069121,0.154233,9.787646,0.002842,0.003825,-0.002246,0.796437,-0.347141,-1.205250,100282.0000
1764076221169613017,2025-11-25 18:40:21.166,0.848138,0.421966,153.839935,0.005839,0.014041,0.977880,0.059672,0.216333,9.768684,-0.001164,-0.003186,-0.001699,0.794960,-0.350065,-1.207591,100275.0000
1764076221269642239,2025-11-25 18:40:21.266,0.829741,0.417199,153.802704,0.005154,0.013253,0.977685,0.039581,0.203516,9.753585,-0.008475,-0.002450,0.001747,0.795483,-0.347125,-1.204273,100282.0000
1764076221369794480,2025-11-25 18:40:21.366,0.813024,0.431694,153.761246,0.005388,0.011705,0.977868,0.048882,0.132003,9.779819,-0.002876,-0.001068,0.002839,0.794984,-0.349059,-1.205199,100280.0000
1764076221470197313,2025-11-25 18:40:21.466,0.806839,0.447958,153.719086,0.006274,0.010980,0.978503,0.069034,0.015438,9.792081,0.004488,-0.003853,-0.000498,0.795948,-0.349522,-1.204724,100277.0000
1764076221571959961,2025-11-25 18:40:21.566,0.815316,0.463808,153.679077,0.007085,0.010479,0.978988,0.057982,0.034393,9.805786,0.011542,-0.007969,0.002684,0.793536,-0.350020,-1.205163,100288.0000
1764076221670109128,2025-11-25 18:40:21.666,0.832259,0.472517,153.643219,0.008134,0.011362,0.979436,0.102089,0.099333,9.819569,0.005151,0.000983,-0.001465,0.794036,-0.348554,-1.203748,100277.0000
1764076221770028294,2025-11-25 18:40:21.766,0.851987,0.473040,153.612900,0.007611,0.012122,0.979152,0.099091,0.206296,9.786852,0.001777,-0.002938,-0.002791,0.794984,-0.349059,-1.205199,100284.0000
1764076221870290127,2025-11-25 18:40:21.866,0.861749,0.467364,153.576614,0.007948,0.012724,0.978918,0.093794,0.213991,9.767159,-0.001617,-0.000174,0.001175,0.794981,-0.350481,-1.204696,100278.0000
1764076221975065201,2025-11-25 18:40:21.966,0.863209,0.454647,153.542984,0.007668,0.013513,0.978270,-0.008711,0.294636,9.767065,0.007328,-0.000793,0.001200,0.794504,-0.348115,-1.205688,100285.0000
1764076222070476424,2025-11-25 18:40:22.066,0.853516,0.391692,153.533630,0.007918,0.013890,0.979587,0.015273,0.261833,9.767304,0.001838,0.018462,-0.009948,0.794991,-0.347625,-1.205221,100282.0000
1764076222169939812,2025-11-25 18:40:22.166,0.833094,0.363696,153.624237,0.000874,0.016608,0.975930,0.005746,0.011960,9.843953,-0.010029,-0.010965,-0.031109,0.795494,-0.344737,-1.204309,100282.0000
1764076222270145238,2025-11-25 18:40:22.266,0.788246,0.392887,153.887100,0.003519,0.015107,0.979407,0.316206,0.048311,9.830783,-0.012328,0.009194,-0.075705,0.797448,-0.342766,-1.201960,100280.0000
1764076222370643349,2025-11-25 18:40:22.366,0.717854,0.261327,154.535446,-0.001018,0.019092,0.981262,0.270840,0.218091,10.025871,-0.009261,0.022058,-0.166552,0.804680,-0.336097,-1.204576,100282.0000
1764076222469686349,2025-11-25 18:40:22.466,0.647799,0.236470,155.689560,-0.008653,0.013577,0.975664,0.875564,0.648530,10.383970,-0.013321,-0.012515,-0.246314,0.815308,-0.325094,-1.206345,100288.0000
1764076222570330868,2025-11-25 18:40:22.566,0.612188,0.449502,157.178253,-0.011323,0.005961,0.975243,0.470521,0.174707,10.199871,-0.004506,-0.057316,-0.287263,0.823111,-0.304987,-1.206285,100280.0000
1764076222673082071,2025-11-25 18:40:22.666,0.644346,0.746809,158.796631,0.005522,0.003641,0.978236,-0.026346,0.223648,9.929955,0.001317,-0.055210,-0.294161,0.830369,-0.288348,-1.211944,100284.0000
1764076222769234979,2025-11-25 18:40:22.766,0.716122,0.959532,160.548294,0.022043,0.008518,0.980742,0.196211,0.062059,9.845308,0.002760,-0.032167,-0.323666,0.841536,-0.267290,-1.212911,100284.0000
1764076222870364182,2025-11-25 18:40:22.866,0.804325,0.971508,162.480881,0.031907,0.010992,0.983533,0.110342,-0.031863,9.662560,0.016207,0.022375,-0.356724,0.852714,-0.243377,-1.214403,100282.0000
1764076222970691460,2025-11-25 18:40:22.966,0.891784,0.791503,164.552261,0.021442,0.015982,0.979210,-0.272478,0.414211,9.526348,0.004825,0.025706,-0.374278,0.866799,-0.220812,-1.212547,100279.0000
1764076223070472830,2025-11-25 18:40:23.066,0.951089,0.512884,166.649231,0.015766,0.015469,0.981601,0.191751,0.061560,9.884645,-0.003602,0.037950,-0.380491,0.879445,-0.198244,-1.210188,100281.0000
1764076223169931719,2025-11-25 18:40:23.166,0.974144,0.234350,168.699585,0.005875,0.015779,0.980274,0.328519,0.543269,10.051284,-0.003275,0.038943,-0.358275,0.896466,-0.170351,-1.205566,100280.0000
1764076223270275664,2025-11-25 18:40:23.266,0.951699,0.049708,170.684250,-0.005868,0.016491,0.976425,-0.171483,0.262920,9.818767,-0.008183,0.020377,-0.345166,0.903324,-0.147372,-1.205055,100278.0000
1764076223370360830,2025-11-25 18:40:23.366,0.874360,0.011725,172.639709,-0.011510,0.017171,0.973886,-0.187037,0.129674,9.779110,-0.013523,-0.010355,-0.344866,0.910701,-0.121463,-1.201705,100280.0000
1764076223470039589,2025-11-25 18:40:23.466,0.777017,0.127085,174.626404,-0.007721,0.014598,0.973904,0.222251,0.043982,9.778171,-0.017250,-0.033319,-0.359121,0.917076,-0.092836,-1.205125,100284.0000
1764076223570377830,2025-11-25 18:40:23.566,0.708021,0.324616,176.687973,0.001636,0.010106,0.977815,0.268306,-0.190827,10.094452,-0.006600,-0.035145,-0.375359,0.922963,-0.063285,-1.209997,100281.0000
1764076223669953460,2025-11-25 18:40:23.666,0.704879,0.502691,178.796768,0.009087,0.005236,0.980339,-0.030886,0.137129,9.801810,0.003556,-0.032786,-0.373529,0.926452,-0.037496,-1.211405,100279.0000
1764076223770056071,2025-11-25 18:40:23.766,0.771951,0.585573,180.888367,0.016409,0.009056,0.980892,0.025814,0.496818,9.855342,0.007358,-0.010126,-0.364204,0.929963,-0.009766,-1.211399,100282.0000
1764076223870319237,2025-11-25 18:40:23.866,0.872067,0.533874,182.911026,0.017830,0.007866,0.979981,0.243255,0.262979,9.917031,0.012837,0.005456,-0.348798,0.932959,0.015991,-1.214244,100276.0000
1764076223970970626,2025-11-25 18:40:23.966,0.948254,0.400765,184.878799,0.013621,0.015827,0.980123,0.252762,0.356975,9.914621,0.011513,0.015451,-0.342230,0.936483,0.039514,-1.209838,100282.0000
1764076224070056848,2025-11-25 18:40:24.066,0.951841,0.241566,186.850922,0.006959,0.020882,0.978780,-0.085219,0.125026,9.775990,-0.004658,0.020803,-0.351696,0.938549,0.067239,-1.209810,100283.0000
1764076224170273533,2025-11-25 18:40:24.166,0.883893,0.133004,188.860779,0.000424,0.018750,0.977916,0.006398,-0.108904,9.841986,-0.020627,0.009439,-0.362132,0.941115,0.096896,-1.208856,100280.0000
1764076224270007293,2025-11-25 18:40:24.266,0.788117,0.109696,190.910217,-0.002758,0.015987,0.977065,0.073823,0.104674,9.823842,-0.017687,-0.011739,-0.371227,0.939817,0.122257,-1.206815,100280.0000
1764076224370095885,2025-11-25 18:40:24.366,0.716077,0.169021,192.967926,-0.001019,0.008510,0.978245,-0.039146,0.018990,9.784758,0.001400,-0.027606,-0.361641,0.937549,0.151365,-1.208189,100281.0000
1764076224471052978,2025-11-25 18:40:24.466,0.701852,0.272793,194.990448,0.003037,0.008604,0.977910,0.185080,0.435430,9.907994,0.005341,-0.025621,-0.353765,0.935726,0.177079,-1.211926,100284.0000
1764076224570460663,2025-11-25 18:40:24.566,0.740927,0.366474,196.970734,0.007280,0.007509,0.977410,0.057390,0.324232,9.821687,0.002714,-0.021588,-0.346216,0.930074,0.205185,-1.214680,100282.0000
1764076224669678292,2025-11-25 18:40:24.666,0.789109,0.418853,198.933823,0.011811,0.011831,0.978393,0.107947,0.192147,9.843022,0.002158,-0.010424,-0.346773,0.925858,0.228094,-1.214967,100279.0000
1764076224770064700,2025-11-25 18:40:24.766,0.809877,0.409786,200.913239,0.013702,0.016611,0.979058,0.195501,0.223499,9.753961,-0.002002,0.006110,-0.359462,0.922161,0.253933,-1.212417,100284.0000
1764076224870053366,2025-11-25 18:40:24.866,0.798140,0.351792,202.909302,0.010374,0.014191,0.980563,0.175136,0.116122,9.948737,-0.007467,0.008511,-0.358180,0.913631,0.282524,-1.214173,100288.0000
1764076224969914440,2025-11-25 18:40:24.966,0.768250,0.281068,204.911606,0.007498,0.012522,0.981377,0.104279,0.185429,9.910082,-0.010000,0.007059,-0.355315,0.907985,0.306402,-1.213491,100276.0000
1764076225070415977,2025-11-25 18:40:25.066,0.745993,0.224958,206.920776,0.004680,0.013512,0.979041,0.043602,0.267020,9.744177,-0.001645,0.003744,-0.364548,0.900436,0.333158,-1.211862,100283.0000
1764076225170176311,2025-11-25 18:40:25.166,0.738956,0.203157,208.929443,0.003466,0.009604,0.977140,0.005321,0.089898,9.670868,-0.000405,-0.007995,-0.357337,0.888520,0.358858,-1.214005,100279.0000
1764076225269856700,2025-11-25 18:40:25.266,0.753746,0.209504,210.933533,0.004137,0.010098,0.977528,-0.024721,0.080149,9.831432,-0.004976,-0.009429,-0.350846,0.880952,0.382738,-1.212813,100284.0000
1764076225370399311,2025-11-25 18:40:25.366,0.767633,0.241658,212.931534,0.005414,0.014347,0.976815,-0.007283,-0.080328,9.861797,-0.001560,-0.010788,-0.356008,0.870480,0.408444,-1.214978,100290.0000
1764076225470150736,2025-11-25 18:40:25.466,0.764572,0.280495,214.934082,0.006684,0.013831,0.977929,0.170308,0.073324,9.814064,-0.003390,-0.013870,-0.353816,0.856195,0.432812,-1.211768,100279.0000
1764076225570666014,2025-11-25 18:40:25.566,0.742633,0.322566,216.938141,0.007699,0.012611,0.978079,-0.088801,0.156060,9.679233,-0.003788,-0.014851,-0.364264,0.844737,0.456095,-1.215326,100282.0000
1764076225670071403,2025-11-25 18:40:25.666,0.713636,0.353347,218.942886,0.010857,0.012589,0.979153,0.078996,-0.034878,9.715697,-0.005141,-0.013204,-0.360676,0.831863,0.478030,-1.214508,100276.0000
1764076225770273384,2025-11-25 18:40:25.766,0.689906,0.351372,220.945740,0.012368,0.011454,0.980280,0.185227,0.064397,9.807475,-0.001310,-0.000798,-0.353736,0.816127,0.505675,-1.214216,100277.0000
1764076225869731958,2025-11-25 18:40:25.866,0.695364,0.319598,222.928619,0.011911,0.010013,0.980586,0.204254,0.308029,9.915362,0.005251,0.000216,-0.343740,0.803207,0.521359,-1.215229,100288.0000
1764076225970442718,2025-11-25 18:40:25.966,0.711727,0.269343,224.903732,0.010300,0.010438,0.979759,0.078441,0.067313,9.839670,0.005310,0.003644,-0.349232,0.787935,0.547074,-1.215878,100277.0000
1764076226070026292,2025-11-25 18:40:26.066,0.729164,0.205472,226.891571,0.007980,0.013073,0.978553,-0.052059,0.001289,9.678319,0.005210,0.009782,-0.354209,0.770741,0.567130,-1.212560,100276.0000
1764076226170077106,2025-11-25 18:40:26.166,0.726202,0.161247,228.885300,0.005119,0.013664,0.977281,0.043013,0.085401,9.642128,0.000172,0.003881,-0.356164,0.754001,0.589475,-1.214099,100280.0000
1764076226270002143,2025-11-25 18:40:26.266,0.705169,0.160719,230.866180,0.004391,0.012535,0.977327,-0.057897,0.097696,9.669235,-0.002543,-0.007527,-0.355229,0.737753,0.609962,-1.213209,100278.0000
1764076226369501754,2025-11-25 18:40:26.366,0.673901,0.180295,232.829880,0.005152,0.012283,0.978453,0.080585,0.143099,9.961324,0.004179,-0.014221,-0.345979,0.719559,0.627086,-1.212721,100282.0000
1764076226473028606,2025-11-25 18:40:26.466,0.640572,0.196924,234.797279,0.007146,0.011974,0.978137,0.109187,0.289956,9.882793,-0.002764,-0.012330,-0.354038,0.697996,0.645608,-1.213168,100284.0000
1764076226569933347,2025-11-25 18:40:26.566,0.625698,0.203384,236.777290,0.008522,0.009375,0.978137,0.120324,-0.168670,9.666042,-0.004813,-0.005287,-0.356217,0.679332,0.665119,-1.212710,100284.0000
1764076226670006032,2025-11-25 18:40:26.666,0.636999,0.195031,238.755661,0.008409,0.009711,0.978428,0.195598,-0.019611,9.865108,0.009659,-0.004127,-0.349286,0.659203,0.678434,-1.211172,100279.0000
1764076226770714754,2025-11-25 18:40:26.766,0.655804,0.168865,240.717072,0.006877,0.011047,0.978725,-0.004391,0.039892,9.827603,0.007037,0.001524,-0.343866,0.637629,0.695513,-1.212078,100278.0000
1764076226870037310,2025-11-25 18:40:26.866,0.654722,0.141635,242.673141,0.006492,0.012902,0.980293,0.069034,0.133230,9.807255,-0.006770,0.001180,-0.346302,0.618451,0.710691,-1.212991,100278.0000
1764076226971055513,2025-11-25 18:40:26.966,0.641945,0.137878,244.628456,0.004521,0.012940,0.978728,0.228198,0.212111,9.704064,-0.004613,-0.012823,-0.352688,0.595444,0.728262,-1.212920,100286.0000
1764076227070365624,2025-11-25 18:40:27.066,0.617901,0.175376,246.598564,0.006310,0.012076,0.978668,0.234262,-0.025642,9.712374,-0.003508,-0.009488,-0.352045,0.572404,0.741502,-1.214228,100288.0000
1764076227169782402,2025-11-25 18:40:27.166,0.596248,0.205896,248.555496,0.006498,0.010961,0.979105,-0.021138,0.163116,9.828398,0.001662,-0.007368,-0.346272,0.548923,0.756733,-1.211707,100280.0000
1764076227269222309,2025-11-25 18:40:27.266,0.599737,0.209678,250.465500,0.008952,0.008472,0.978140,0.011068,0.092440,9.729378,0.004006,0.000411,-0.320646,0.526343,0.768034,-1.214436,100278.0000
1764076227369986513,2025-11-25 18:40:27.366,0.632428,0.193454,252.242218,0.007878,0.008304,0.977780,0.068393,0.052239,9.806081,0.005484,-0.005448,-0.304752,0.504256,0.775598,-1.213264,100278.0000
1764076227470753106,2025-11-25 18:40:27.466,0.676974,0.172366,253.879822,0.010320,0.010517,0.979637,0.284391,-0.160921,9.950317,0.014273,0.005063,-0.277920,0.483610,0.782691,-1.212105,100284.0000
1764076227570280772,2025-11-25 18:40:27.566,0.714691,0.113627,255.392647,0.006355,0.013810,0.978550,-0.134613,0.254411,9.713546,0.003711,0.010749,-0.260640,0.463943,0.794544,-1.211996,100277.0000
1764076227669604087,2025-11-25 18:40:27.666,0.729666,0.189876,256.749519,0.000171,0.013185,0.974305,-0.120746,0.154672,9.737609,0.001660,-0.043795,-0.236993,0.447590,0.797316,-1.212761,100282.0000
1764076227770071068,2025-11-25 18:40:27.766,0.724759,0.517427,257.928078,0.014573,0.014055,0.977012,0.630591,0.217833,9.905548,-0.001264,-0.073799,-0.195750,0.427869,0.803844,-1.215942,100278.0000
1764076227870363420,2025-11-25 18:40:27.866,0.683122,1.039335,258.895203,0.034781,0.011859,0.974797,0.475412,-0.066742,9.913903,-0.005667,-0.120849,-0.139996,0.413932,0.808537,-1.216771,100278.0000
1764076227971367809,2025-11-25 18:40:27.966,0.660451,2.132352,259.376434,0.068980,0.004058,0.967352,1.104225,-0.168640,9.627075,-0.004076,-0.221346,-0.041614,0.393714,0.812664,-1.220390,100282.0000
1764076228070757161,2025-11-25 18:40:28.066,0.633277,3.428782,259.495277,0.131795,0.010889,0.974286,1.565779,-0.151398,9.718809,-0.007423,-0.198048,-0.021176,0.378744,0.812454,-1.226909,100280.0000
1764076228169685864,2025-11-25 18:40:28.166,0.608510,4.294095,259.549583,0.184688,0.010292,0.977376,2.183400,0.141396,9.782152,-0.003799,-0.098021,-0.021125,0.368146,0.811431,-1.227700,100274.0000
1764076228269890087,2025-11-25 18:40:28.266,0.583746,4.472332,259.610695,0.208355,0.007847,0.976457,1.785771,0.376381,9.598520,-0.000701,0.029810,-0.017359,0.368626,0.810488,-1.227211,100282.0000
1764076228370055327,2025-11-25 18:40:28.366,0.569071,3.992975,259.557297,0.196797,0.004725,0.973144,1.592919,0.278014,9.865937,0.002267,0.127065,0.003447,0.370075,0.813808,-1.228728,100286.0000
1764076228470134512,2025-11-25 18:40:28.466,0.581780,3.107014,259.416039,0.157425,0.005590,0.968568,1.014081,-0.138913,9.620104,0.008521,0.166985,0.021119,0.380676,0.812483,-1.225974,100278.0000
1764076228570192809,2025-11-25 18:40:28.566,0.629924,2.244540,259.268677,0.109255,0.011203,0.968441,1.006859,0.437432,9.790276,0.011733,0.120529,0.009862,0.390325,0.813065,-1.223235,100278.0000
1764076228670526568,2025-11-25 18:40:28.666,0.695566,1.795851,259.134186,0.073411,0.012256,0.970242,0.571838,0.014382,9.726386,0.011672,0.033028,0.021782,0.397068,0.812171,-1.221876,100281.0000
1764076228769677012,2025-11-25 18:40:28.766,0.752306,1.912706,258.995003,0.063779,0.015558,0.971892,0.382860,0.388570,9.593856,0.008534,-0.057452,0.022041,0.395129,0.809296,-1.221804,100280.0000
1764076228869953475,2025-11-25 18:40:28.866,0.776010,2.509569,258.811447,0.076879,0.015983,0.972668,1.294150,-0.164119,9.571473,0.005815,-0.122785,0.020949,0.392201,0.808704,-1.226568,100284.0000
1764076228970050142,2025-11-25 18:40:28.966,0.772740,3.290835,258.588966,0.109108,0.015581,0.974154,1.697907,0.206612,9.827968,0.010524,-0.136193,0.042695,0.386884,0.809086,-1.229866,100279.0000
1764076229069583234,2025-11-25 18:40:29.066,0.764435,3.925565,258.356300,0.144131,0.016345,0.975129,1.906722,0.141314,10.040298,0.004339,-0.075971,0.030373,0.384968,0.808630,-1.228386,100282.0000
1764076229169373012,2025-11-25 18:40:29.166,0.773632,3.961793,258.124870,0.157938,0.016995,0.974729,1.713340,0.012300,9.769569,0.002195,0.059769,0.025829,0.387820,0.804781,-1.230296,100274.0000
1764076229269763438,2025-11-25 18:40:29.266,0.800337,3.336653,257.897972,0.132259,0.017597,0.974225,1.025405,0.298209,9.655505,0.007442,0.156427,0.039685,0.392651,0.804854,-1.227960,100278.0000
1764076229370045567,2025-11-25 18:40:29.366,0.822263,2.400939,257.655724,0.073993,0.017113,0.976418,0.094654,0.232103,9.721609,0.009237,0.165397,0.036540,0.404690,0.805406,-1.227183,100280.0000
1764076229470291364,2025-11-25 18:40:29.466,0.835789,1.608008,257.363869,0.025018,0.016621,0.980112,0.249449,0.148761,9.825246,0.005782,0.105342,0.059978,0.414841,0.805573,-1.221556,100280.0000
1764076229570525123,2025-11-25 18:40:29.566,0.835604,1.263327,256.997688,-0.004533,0.020834,0.982630,-0.070990,0.463883,9.791959,-0.002931,0.016594,0.061348,0.424441,0.801785,-1.222121,100276.0000
1764076229671126901,2025-11-25 18:40:29.666,0.816613,1.402899,256.570633,-0.002836,0.021012,0.980636,-0.035433,-0.151088,9.700866,-0.002814,-0.058435,0.070987,0.427810,0.798975,-1.220201,100286.0000
1764076229769720086,2025-11-25 18:40:29.766,0.781517,1.812236,256.085045,0.020777,0.022181,0.978505,0.702950,0.371138,9.987638,0.001312,-0.076871,0.087217,0.431656,0.801340,-1.222220,100279.0000
1764076229870127345,2025-11-25 18:40:29.866,0.739670,2.171091,255.529968,0.047040,0.018117,0.975107,0.267656,0.057008,9.713942,0.002591,-0.042128,0.095451,0.430661,0.795593,-1.222599,100277.0000
1764076229970414993,2025-11-25 18:40:29.966,0.722749,2.251960,254.902649,0.064288,0.020078,0.975700,0.582089,0.065205,9.761793,0.004592,0.023232,0.107594,0.439772,0.793195,-1.225105,100281.0000
1764076230070164048,2025-11-25 18:40:30.066,0.750221,2.049870,254.255402,0.055061,0.022555,0.975213,0.403039,0.048770,9.809161,0.019364,0.050799,0.109194,0.447467,0.789449,-1.223234,100279.0000
1764076230170221678,2025-11-25 18:40:30.166,0.812229,1.705260,253.614540,0.040854,0.025084,0.979139,0.499809,0.436472,9.841019,0.018179,0.065520,0.107316,0.459965,0.788062,-1.223879,100282.0000
1764076230270517641,2025-11-25 18:40:30.266,0.872001,1.414543,252.988205,0.019195,0.029440,0.979016,-0.066312,0.582000,9.716048,0.010486,0.039143,0.099206,0.469087,0.780979,-1.221979,100274.0000
1764076230369983789,2025-11-25 18:40:30.366,0.904241,1.314330,252.363068,0.007193,0.030907,0.979053,-0.368133,0.427528,9.572773,0.001155,-0.002572,0.101597,0.476779,0.780525,-1.222566,100281.0000
1764076230470537215,2025-11-25 18:40:30.466,0.895113,1.400856,251.728592,0.010350,0.029323,0.980209,0.465481,0.322005,9.866680,0.000032,-0.029497,0.099800,0.485416,0.775788,-1.222621,100281.0000
1764076230570538659,2025-11-25 18:40:30.566,0.866130,1.593497,251.070656,0.021999,0.026474,0.979226,0.570643,0.347642,9.917008,0.000224,-0.028850,0.117451,0.491165,0.772449,-1.223618,100279.0000
1764076230670414419,2025-11-25 18:40:30.666,0.825574,1.756982,250.394783,0.032261,0.027170,0.976412,0.424100,0.320612,9.796790,-0.007991,-0.021533,0.116412,0.495966,0.771028,-1.224149,100280.0000
1764076230770141363,2025-11-25 18:40:30.766,0.795430,1.829705,249.714432,0.035772,0.024575,0.975142,0.099137,-0.205491,9.624999,-0.006808,-0.004752,0.101755,0.503157,0.765806,-1.224174,100274.0000
1764076230870187344,2025-11-25 18:40:30.866,0.795921,1.813954,249.004822,0.035407,0.024232,0.976662,0.342538,0.509517,9.868565,0.002325,0.006573,0.118470,0.513710,0.763881,-1.227190,100285.0000
1764076230971027733,2025-11-25 18:40:30.966,0.799470,1.730050,248.260429,0.031058,0.025212,0.978827,0.278610,0.278888,9.829166,0.007724,0.014053,0.121385,0.519982,0.759712,-1.222403,100277.0000
1764076231070345048,2025-11-25 18:40:31.066,0.805238,1.637172,247.497704,0.024423,0.027469,0.979382,0.142981,0.340040,9.750684,0.003957,0.016115,0.127537,0.529112,0.755953,-1.221517,100282.0000
1764076231169741289,2025-11-25 18:40:31.166,0.808426,1.610039,246.728737,0.017723,0.026033,0.977599,-0.117864,0.275370,9.607969,0.002219,-0.001239,0.121442,0.535325,0.749740,-1.222958,100280.0000
1764076231269048066,2025-11-25 18:40:31.266,0.802714,1.696663,245.976082,0.021741,0.029654,0.978851,0.223308,0.417298,9.676537,0.000280,-0.016575,0.129314,0.544432,0.747332,-1.225945,100286.0000
1764076231370502325,2025-11-25 18:40:31.366,0.782164,1.838161,245.249908,0.026240,0.027733,0.977017,0.325165,-0.036627,9.781886,0.001254,-0.029182,0.121195,0.550197,0.742622,-1.224032,100284.0000
1764076231472108029,2025-11-25 18:40:31.466,0.762907,1.984857,244.529449,0.033052,0.025108,0.976991,0.544361,0.396793,9.852478,0.001073,-0.018884,0.119274,0.558343,0.735971,-1.224050,100284.0000
1764076231571610177,2025-11-25 18:40:31.566,0.747504,2.072137,243.812241,0.037742,0.024705,0.977230,0.150675,0.319781,9.718200,-0.001021,-0.012278,0.119105,0.566469,0.732094,-1.228445,100278.0000
1764076231670765751,2025-11-25 18:40:31.666,0.738129,2.100014,243.098686,0.039955,0.025127,0.978034,0.603569,0.428934,9.912745,-0.005256,0.000337,0.112529,0.569815,0.726865,-1.227933,100276.0000
1764076231770717047,2025-11-25 18:40:31.766,0.743998,2.075212,242.393623,0.036362,0.023177,0.978228,0.320520,-0.005099,9.863630,0.005354,0.009238,0.116406,0.581830,0.721228,-1.226097,100279.0000
1764076231870110029,2025-11-25 18:40:31.866,0.753001,2.020989,241.710464,0.035859,0.024880,0.978625,0.363789,0.412262,9.857999,0.011264,0.014681,0.108062,0.588063,0.718369,-1.227108,100284.0000
1764076231971543362,2025-11-25 18:40:31.966,0.759583,1.978126,241.036903,0.032813,0.024605,0.979738,0.419244,0.296724,9.789705,0.009342,0.007956,0.115772,0.593818,0.714574,-1.227135,100280.0000
1764076232070206807,2025-11-25 18:40:32.066,0.748321,1.943893,240.377640,0.030400,0.025755,0.978264,0.293393,-0.058484,9.823372,0.002898,0.009746,0.106328,0.600048,0.708880,-1.226658,100288.0000
1764076232170122177,2025-11-25 18:40:32.166,0.725362,1.955486,239.734932,0.028502,0.023623,0.976918,0.371278,0.472072,9.655638,-0.002504,-0.004964,0.100488,0.607223,0.705030,-1.229595,100276.0000
1764076232269628381,2025-11-25 18:40:32.266,0.705858,2.005446,239.098167,0.031687,0.022684,0.977379,0.199681,0.427742,9.602106,-0.001024,-0.005220,0.099038,0.614436,0.698924,-1.226237,100282.0000
1764076232369202066,2025-11-25 18:40:32.366,0.687912,2.057868,238.467163,0.034781,0.021429,0.977940,0.300837,0.118142,9.894455,0.001604,-0.002471,0.105124,0.618737,0.693679,-1.226702,100278.0000
1764076232470225732,2025-11-25 18:40:32.466,0.682455,2.078648,237.844238,0.035150,0.019620,0.978503,0.116138,0.433513,9.763471,0.007878,-0.002015,0.106307,0.624965,0.689865,-1.227698,100283.0000
1764076232571304195,2025-11-25 18:40:32.566,0.688758,2.084512,237.223961,0.035777,0.021233,0.977469,0.468139,0.147784,9.867757,0.009042,-0.003676,0.108609,0.632642,0.685601,-1.227746,100285.0000
1764076232675533269,2025-11-25 18:40:32.671,0.706732,2.088075,236.601540,0.032106,0.021106,0.976875,0.029885,0.242751,9.568852,0.008234,-0.003986,0.102624,0.637439,0.681344,-1.226789,100282.0000
1764076232769254528,2025-11-25 18:40:32.766,0.725075,2.106276,235.984116,0.035078,0.023268,0.978272,0.790602,0.267306,9.997922,0.000140,-0.001721,0.099804,0.645588,0.675171,-1.226814,100277.0000
1764076232870099417,2025-11-25 18:40:32.866,0.733552,2.099893,235.404221,0.037919,0.023308,0.980821,1.113365,0.140324,10.278488,0.011520,0.008629,0.092236,0.648448,0.672754,-1.228746,100274.0000
1764076232969932232,2025-11-25 18:40:32.966,0.722021,2.059320,234.852234,0.035643,0.023182,0.978512,0.608105,0.562624,9.894523,0.005669,0.016934,0.087469,0.654664,0.666552,-1.229706,100280.0000
1764076233070310695,2025-11-25 18:40:33.066,0.700179,2.037097,234.331291,0.027635,0.021632,0.975607,0.265436,0.169305,9.838724,0.001654,-0.002259,0.080503,0.660436,0.662330,-1.227318,100284.0000
1764076233169553806,2025-11-25 18:40:33.166,0.685974,2.051441,233.836967,0.031068,0.019663,0.977241,0.257148,0.007153,9.703005,-0.000826,-0.008081,0.076276,0.667168,0.659992,-1.226418,100283.0000
1764076233269778028,2025-11-25 18:40:33.266,0.682689,2.083452,233.372803,0.031290,0.019842,0.978427,0.493591,0.214836,9.872887,0.001641,-0.006901,0.068204,0.667131,0.655653,-1.228278,100285.0000
1764076233370130824,2025-11-25 18:40:33.366,0.694300,2.118996,232.945793,0.033113,0.018427,0.978345,0.096132,0.372733,9.786527,0.005355,-0.004089,0.067026,0.671438,0.651840,-1.228765,100280.0000
1764076233470480621,2025-11-25 18:40:33.466,0.707037,2.135571,232.539436,0.033916,0.017743,0.978566,0.328806,0.202390,9.653567,0.005141,0.001072,0.066347,0.677685,0.647133,-1.226859,100285.0000
1764076233570613398,2025-11-25 18:40:33.566,0.706344,2.139903,232.139595,0.032845,0.019770,0.978154,0.277504,0.448270,9.680943,0.002117,-0.000410,0.058819,0.679109,0.645675,-1.228302,100278.0000
1764076233670749657,2025-11-25 18:40:33.666,0.686662,2.133845,231.762344,0.034315,0.019770,0.978776,0.636205,0.203362,9.698356,-0.000861,-0.004120,0.057334,0.682924,0.644188,-1.231707,100285.0000
1764076233769875102,2025-11-25 18:40:33.766,0.658077,2.135083,231.424011,0.033350,0.018738,0.977236,0.459107,0.433798,9.680783,-0.011002,-0.002761,0.050242,0.686297,0.639031,-1.227825,100283.0000
1764076233870461620,2025-11-25 18:40:33.866,0.642491,2.154783,231.106033,0.033941,0.014011,0.977593,0.388233,-0.102348,9.957588,0.001701,0.001589,0.049509,0.688237,0.639080,-1.225928,100280.0000
1764076233969945231,2025-11-25 18:40:33.966,0.647652,2.166216,230.823257,0.032256,0.015402,0.978026,0.489178,-0.252135,10.012776,0.006620,0.000089,0.034793,0.689176,0.636665,-1.227350,100274.0000
1764076234070409805,2025-11-25 18:40:34.066,0.656665,2.193283,230.577469,0.031348,0.015531,0.977110,0.503986,0.295107,9.784987,0.011230,-0.006086,0.029046,0.692028,0.632816,-1.229259,100284.0000
1764076234169906398,2025-11-25 18:40:34.166,0.663980,2.240178,230.361130,0.035712,0.016345,0.977885,0.143466,0.117067,9.659715,-0.005389,-0.002176,0.020350,0.693466,0.630922,-1.228770,100283.0000
1764076234268993879,2025-11-25 18:40:34.266,0.660067,2.278990,230.157745,0.036118,0.013168,0.980257,0.187450,-0.351990,9.857318,0.001322,-0.007106,0.029558,0.694429,0.630926,-1.228784,100281.0000
1764076234370021379,2025-11-25 18:40:34.366,0.652005,2.301424,229.966278,0.037986,0.015322,0.977016,0.574017,0.725854,9.798920,0.004201,-0.003898,0.029699,0.696324,0.628973,-1.231190,100282.0000
1764076234470069805,2025-11-25 18:40:34.466,0.634283,2.274397,229.805603,0.036971,0.015906,0.978233,0.137163,-0.047373,9.996245,-0.002521,0.012023,0.017924,0.697288,0.628510,-1.230716,100286.0000
1764076234570204564,2025-11-25 18:40:34.566,0.628408,2.211813,229.672577,0.033746,0.009386,0.976341,0.468176,-0.063869,9.619296,0.008434,0.013363,0.020141,0.697298,0.626650,-1.228280,100275.0000
1764076234670189212,2025-11-25 18:40:34.666,0.630433,2.172756,229.552368,0.029026,0.015106,0.978619,0.176171,0.373130,9.940103,-0.005463,0.004042,0.006145,0.699695,0.628053,-1.230263,100276.0000
1764076234769394731,2025-11-25 18:40:34.766,0.633869,2.165756,229.461731,0.030405,0.010460,0.977675,0.378236,-0.200425,9.896930,0.002787,0.001272,0.007222,0.702110,0.627617,-1.228847,100289.0000
1764076234869054027,2025-11-25 18:40:34.866,0.646023,2.196161,229.387192,0.029974,0.012802,0.980638,0.405609,0.238721,9.635811,0.006279,-0.003308,0.000284,0.699686,0.624730,-1.229249,100276.0000
1764076234970059675,2025-11-25 18:40:34.966,0.649408,2.247631,229.339142,0.034114,0.011730,0.979768,0.328140,0.400791,9.861878,0.003167,-0.011419,-0.001285,0.698727,0.626149,-1.229738,100282.0000
1764076235070072508,2025-11-25 18:40:35.066,0.641699,2.276419,229.326599,0.037971,0.012943,0.978163,0.337522,0.175516,9.729059,-0.000976,-0.004859,-0.006594,0.699692,0.626630,-1.229760,100287.0000
1764076235170578860,2025-11-25 18:40:35.166,0.641710,2.286040,229.333649,0.036108,0.009277,0.976105,0.159832,-0.081806,9.872259,0.001465,-0.002664,-0.006572,0.698242,0.626136,-1.230212,100280.0000
1764076235269766694,2025-11-25 18:40:35.266,0.653816,2.282984,229.360291,0.037512,0.009844,0.976587,0.621025,0.091656,10.020679,0.005241,0.002677,-0.011661,0.697762,0.624722,-1.229220,100279.0000
1764076235370254934,2025-11-25 18:40:35.366,0.670775,2.275179,229.415649,0.033558,0.009991,0.976850,-0.003857,-0.138539,9.859516,0.004636,0.002595,-0.016558,0.696339,0.628069,-1.228769,100278.0000
1764076235470250268,2025-11-25 18:40:35.466,0.682222,2.259938,229.487274,0.035220,0.011765,0.978272,0.192322,0.076363,9.741011,0.000129,0.000508,-0.024668,0.695835,0.626593,-1.230665,100281.0000
1764076235569323490,2025-11-25 18:40:35.566,0.693140,2.251486,229.574753,0.032067,0.010028,0.979880,0.612719,0.160646,9.987144,-0.001871,0.002252,-0.022466,0.693454,0.629946,-1.229718,100282.0000
1764076235669529045,2025-11-25 18:40:35.666,0.692352,2.246001,229.669464,0.033020,0.011450,0.979147,0.106244,0.273475,9.761570,-0.005745,0.000559,-0.027924,0.693954,0.631412,-1.228303,100284.0000
1764076235771206749,2025-11-25 18:40:35.766,0.684572,2.249943,229.775650,0.032392,0.010661,0.979088,0.190154,0.390754,9.794554,-0.005134,-0.000512,-0.027345,0.691056,0.632313,-1.230201,100283.0000
1764076235869775156,2025-11-25 18:40:35.866,0.676808,2.257110,229.886826,0.033294,0.009168,0.977485,0.309088,-0.182876,9.871917,0.001967,0.001323,-0.019658,0.691077,0.634255,-1.228786,100281.0000
1764076235970310415,2025-11-25 18:40:35.966,0.672616,2.268807,230.016861,0.033572,0.009118,0.976623,0.460398,-0.008367,9.789418,-0.001549,-0.002435,-0.024134,0.688671,0.634244,-1.228750,100274.0000
1764076236069649397,2025-11-25 18:40:36.066,0.676821,2.280025,230.165237,0.033857,0.008613,0.977339,0.520175,-0.279959,9.851223,-0.001401,-0.001707,-0.037578,0.686775,0.637610,-1.227329,100284.0000
1764076236169632212,2025-11-25 18:40:36.166,0.687007,2.294235,230.314087,0.035097,0.008910,0.978386,-0.000455,0.070885,9.681971,0.000803,-0.002137,-0.031558,0.686756,0.638504,-1.230232,100281.0000
1764076236269918415,2025-11-25 18:40:36.266,0.688679,2.303685,230.452805,0.034812,0.009223,0.978676,0.316526,0.189984,9.720504,0.003618,0.002205,-0.034602,0.684840,0.640874,-1.230721,100282.0000
1764076236369780045,2025-11-25 18:40:36.366,0.687343,2.297284,230.585678,0.035606,0.009952,0.978157,0.124842,0.135628,9.779205,0.005388,0.002472,-0.031633,0.679563,0.640891,-1.228718,100281.0000
1764076236470490026,2025-11-25 18:40:36.466,0.684069,2.283412,230.730682,0.033893,0.008190,0.977632,0.258766,0.172107,9.635315,0.006356,-0.004754,-0.031040,0.681489,0.645147,-1.231219,100279.0000
1764076236570292545,2025-11-25 18:40:36.566,0.684633,2.263873,230.876587,0.034629,0.010064,0.978261,0.731458,0.019602,9.839032,-0.000825,-0.000144,-0.033367,0.680064,0.643302,-1.227798,100280.0000
1764076236670031008,2025-11-25 18:40:36.666,0.686769,2.237363,231.033142,0.033493,0.009895,0.979508,0.124650,-0.006048,9.787981,-0.000216,0.005747,-0.036260,0.675745,0.648028,-1.229252,100283.0000
1764076236769703711,2025-11-25 18:40:36.766,0.689558,2.213457,231.214462,0.030334,0.010965,0.978617,0.038316,0.021399,9.902969,-0.006820,0.007478,-0.041467,0.674788,0.646621,-1.227771,100283.0000
1764076236870204544,2025-11-25 18:40:36.866,0.691871,2.216902,231.405594,0.031472,0.008528,0.978777,0.004684,-0.218452,9.825994,-0.002379,-0.001504,-0.037691,0.672396,0.650889,-1.228765,100281.0000
1764076236972108267,2025-11-25 18:40:36.966,0.700029,2.234797,231.597244,0.034794,0.008137,0.977524,0.682978,0.066149,9.726911,-0.002721,-0.006086,-0.037501,0.669988,0.648988,-1.227737,100281.0000
1764076237070743452,2025-11-25 18:40:37.066,0.709877,2.274333,231.821518,0.033992,0.009998,0.976175,0.715912,0.098998,9.838511,-0.003043,-0.008308,-0.058397,0.668590,0.654287,-1.225389,100274.0000
1764076237169832637,2025-11-25 18:40:37.166,0.718678,2.292985,232.074150,0.034713,0.007975,0.978024,0.299114,-0.027961,9.733537,0.006146,0.001599,-0.043186,0.663736,0.655566,-1.231598,100282.0000
1764076237270212915,2025-11-25 18:40:37.266,0.726687,2.292533,232.329216,0.037594,0.008275,0.978805,0.591089,0.379976,9.915694,-0.005149,0.004347,-0.045594,0.662798,0.658926,-1.230672,100280.0000
1764076237369791303,2025-11-25 18:40:37.366,0.728672,2.265291,232.597015,0.033857,0.009320,0.978013,0.357852,0.131738,9.857614,-0.003227,-0.001097,-0.052413,0.660409,0.662259,-1.230688,100273.0000
1764076237470991655,2025-11-25 18:40:37.466,0.722489,2.250144,232.868843,0.035461,0.008332,0.978796,0.496664,-0.297015,9.947197,-0.003789,0.005087,-0.052833,0.653231,0.665631,-1.227744,100278.0000
1764076237570234637,2025-11-25 18:40:37.566,0.703130,2.255387,233.132721,0.033736,0.007686,0.978678,0.168802,-0.021707,9.648131,-0.006094,0.004459,-0.056180,0.651783,0.667027,-1.229189,100281.0000
1764076237673888655,2025-11-25 18:40:37.666,0.680861,2.260811,233.382378,0.032929,0.006918,0.977515,0.293065,-0.095085,9.716266,-0.003273,-0.005830,-0.056363,0.647968,0.669927,-1.226769,100285.0000
1764076237773730859,2025-11-25 18:40:37.766,0.669399,2.235765,233.634354,0.034833,0.005389,0.977248,0.206459,-0.000411,9.764723,-0.000643,0.003542,-0.052963,0.647510,0.673756,-1.226339,100278.0000
1764076237870195748,2025-11-25 18:40:37.866,0.682116,2.224257,233.879814,0.032327,0.005559,0.977888,0.547540,0.062281,9.939718,-0.001721,0.002333,-0.049369,0.643172,0.674662,-1.227734,100284.0000
1764076237970070229,2025-11-25 18:40:37.966,0.701488,2.228019,234.133530,0.031946,0.007673,0.977800,0.230410,-0.019900,9.795173,0.002871,0.001150,-0.049511,0.640788,0.678950,-1.227764,100282.0000
1764076238070627266,2025-11-25 18:40:38.066,0.713541,2.275902,234.412300,0.032327,0.008987,0.977231,0.152458,0.403195,9.552756,-0.001098,-0.010778,-0.052753,0.637427,0.680368,-1.227737,100283.0000
1764076238170471858,2025-11-25 18:40:38.166,0.709470,2.319987,234.690521,0.034386,0.008963,0.979779,0.447934,-0.427811,9.852774,-0.009859,-0.008433,-0.053241,0.633585,0.681784,-1.227702,100288.0000
1764076238270010562,2025-11-25 18:40:38.266,0.706334,2.333384,234.953606,0.036933,0.009277,0.980417,0.321764,0.040377,9.747932,0.003079,0.000414,-0.051361,0.627345,0.686979,-1.229134,100282.0000
1764076238370076377,2025-11-25 18:40:38.366,0.714462,2.182463,235.140930,0.037486,0.004884,0.982767,0.104317,-0.023375,9.832592,0.008823,0.048430,-0.030099,0.628329,0.686100,-1.225764,100282.0000
1764076238470109895,2025-11-25 18:40:38.466,0.755250,1.671241,235.182335,0.026443,0.007808,0.983063,0.238476,0.261227,9.870124,0.010889,0.116560,-0.009621,0.632677,0.688050,-1.224895,100278.0000
1764076238570469080,2025-11-25 18:40:38.566,0.810336,0.921656,235.108498,0.000188,0.011880,0.981428,-0.159327,0.377389,9.996369,0.004575,0.151640,0.015948,0.640403,0.686744,-1.220654,100280.0000
1764076238670400636,2025-11-25 18:40:38.666,0.872063,0.072857,234.893417,-0.037328,0.014255,0.980845,-0.746092,-0.211484,9.687609,0.013022,0.136343,0.041699,0.650572,0.683659,-1.210643,100284.0000
1764076238769858858,2025-11-25 18:40:38.766,0.925615,-0.510436,234.611671,-0.064972,0.022060,0.979424,-0.423457,0.970385,10.341060,0.012475,0.078037,0.041837,0.658753,0.683229,-1.210275,100271.0000
1764076238869755543,2025-11-25 18:40:38.866,0.961789,-0.837571,234.237091,-0.070920,0.020127,0.983331,1.492804,0.165676,11.456882,0.014630,0.071178,0.062058,0.664527,0.677126,-1.206414,100278.0000
1764076238969921469,2025-11-25 18:40:38.966,0.968594,-1.226084,233.584137,-0.108461,0.019863,0.977438,-0.786966,0.194470,10.083745,-0.028304,0.098957,0.140097,0.674120,0.670492,-1.205973,100278.0000
1764076239069970747,2025-11-25 18:40:39.066,0.889740,-1.794396,232.573570,-0.134522,0.040436,0.968821,-2.084143,2.615189,9.307143,-0.023712,0.078840,0.134500,0.690060,0.666011,-1.195544,100279.0000
1764076239169999080,2025-11-25 18:40:39.166,0.767548,-1.976744,231.522949,-0.138930,0.011377,0.970055,-1.019345,-1.486901,9.202434,-0.015283,0.006562,0.217090,0.703021,0.659392,-1.195152,100284.0000
1764076239270293636,2025-11-25 18:40:39.266,0.707646,-1.877119,230.430206,-0.128410,0.023458,0.978107,-0.807890,3.693654,10.601768,-0.037968,-0.056561,0.138679,0.712618,0.651823,-1.193733,100279.0000
1764076239369975061,2025-11-25 18:40:39.366,0.697460,-1.450732,229.235596,-0.123807,0.001828,0.964686,-0.127956,-0.278789,9.956066,-0.014116,-0.096026,0.241668,0.719752,0.639853,-1.196545,100274.0000
1764076239474116395,2025-11-25 18:40:39.466,0.727491,-0.733573,227.932968,-0.100946,0.022598,0.965010,-1.934006,1.798049,10.004438,-0.026692,-0.139368,0.203554,0.725897,0.629219,-1.203697,100280.0000
1764076239569546228,2025-11-25 18:40:39.566,0.725374,0.047728,226.579575,-0.059985,0.003457,0.965920,-0.173491,-3.258679,9.942143,0.011434,-0.113618,0.245682,0.728681,0.616233,-1.208356,100283.0000
1764076239670147061,2025-11-25 18:40:39.666,0.683702,0.606939,225.147079,-0.028740,0.025720,0.972609,-0.529054,0.643985,9.777825,-0.007931,-0.069145,0.247032,0.733850,0.600848,-1.213976,100274.0000
1764076239769646080,2025-11-25 18:40:39.766,0.558601,0.795778,223.684647,-0.008116,0.021805,0.979222,-0.078484,-0.595188,9.758257,-0.025894,-0.010227,0.244475,0.745816,0.591308,-1.215933,100278.0000
1764076239870356376,2025-11-25 18:40:39.866,0.438530,0.608003,222.136765,-0.001529,0.005750,0.990791,-0.575443,-0.409403,9.758387,-0.009726,0.079324,0.290662,0.759237,0.578034,-1.214001,100280.0000
1764076239969895561,2025-11-25 18:40:39.966,0.389806,-0.007850,220.347046,-0.014102,0.000077,0.992476,-0.413901,0.573178,10.098749,-0.015434,0.113473,0.312229,0.778446,0.560112,-1.207269,100284.0000
1764076240069912468,2025-11-25 18:40:40.066,0.444980,-0.631934,218.325974,-0.045538,-0.004488,0.988862,-0.763547,-0.247953,10.056535,0.001641,0.074835,0.352107,0.803905,0.540317,-1.200117,100284.0000
1764076240170264524,2025-11-25 18:40:40.166,0.540770,-0.751137,216.161713,-0.063235,-0.003690,0.978586,-0.927483,0.425687,9.811614,0.023890,-0.019427,0.376970,0.821123,0.514194,-1.196601,100286.0000
1764076240269923079,2025-11-25 18:40:40.266,0.611536,-0.422857,213.914154,-0.046447,0.008758,0.971570,-0.589859,-0.182494,9.489306,0.005182,-0.070006,0.382085,0.833966,0.493122,-1.201766,100282.0000
1764076240369992542,2025-11-25 18:40:40.366,0.612936,0.054937,211.631409,-0.021209,0.008408,0.969765,-0.111028,-0.164389,9.796765,0.003339,-0.064234,0.389434,0.843904,0.465858,-1.205349,100283.0000
1764076240470890524,2025-11-25 18:40:40.466,0.547613,0.413215,209.373734,-0.000031,0.009554,0.971735,-0.039225,0.274445,9.539385,-0.003811,-0.039858,0.388883,0.853357,0.441885,-1.211383,100276.0000
1764076240573067357,2025-11-25 18:40:40.566,0.461620,0.515260,207.184998,0.012168,0.007986,0.977502,-0.041574,0.513661,9.824260,-0.010760,-0.005143,0.365337,0.862855,0.417557,-1.211633,100282.0000
1764076240670245283,2025-11-25 18:40:40.666,0.417675,0.363851,205.030548,0.012568,-0.003819,0.983156,0.245248,-0.504312,9.871719,0.003592,0.031598,0.377370,0.877655,0.392337,-1.210021,100276.0000
1764076240770370690,2025-11-25 18:40:40.766,0.476206,0.089125,202.834183,0.001537,-0.004064,0.984945,0.213411,0.238154,9.812044,0.022178,0.044907,0.375289,0.890525,0.364264,-1.207374,100282.0000
1764076240870430857,2025-11-25 18:40:40.866,0.612617,-0.058796,200.581924,-0.013719,0.000843,0.983236,0.057250,-0.180269,9.952252,0.027255,0.020077,0.385984,0.901452,0.335663,-1.206617,100284.0000
1764076240969998357,2025-11-25 18:40:40.966,0.734323,-0.012032,198.306458,-0.021429,0.009304,0.976983,-0.318210,0.194244,9.687068,0.014544,-0.022785,0.388930,0.910462,0.308487,-1.205854,100288.0000
1764076241070056486,2025-11-25 18:40:41.066,0.752975,0.190309,196.117966,-0.009427,0.016290,0.975944,0.202607,0.259108,9.828299,-0.012397,-0.028636,0.354109,0.915585,0.280724,-1.209358,100283.0000
1764076241169889542,2025-11-25 18:40:41.166,0.667937,0.414740,194.070374,-0.002920,0.012980,0.972678,-0.497376,0.048171,9.524508,-0.019251,-0.038281,0.339662,0.920732,0.253022,-1.209975,100285.0000
1764076241269868375,2025-11-25 18:40:41.266,0.557166,0.546115,192.113403,0.009074,0.010466,0.976531,0.287071,0.312145,9.811944,-0.015394,-0.014318,0.333819,0.924926,0.231942,-1.213567,100282.0000
1764076241369381245,2025-11-25 18:40:41.366,0.512653,0.544308,190.142059,0.012250,-0.001042,0.979389,0.109303,-0.543457,9.918612,0.005296,0.011289,0.345541,0.925277,0.206617,-1.213668,100274.0000
1764076241470386301,2025-11-25 18:40:41.466,0.550118,0.462784,188.133102,0.008103,-0.003157,0.982096,0.292643,-0.034031,9.845425,0.019958,0.021282,0.355001,0.933334,0.181347,-1.212919,100278.0000
1764076241570466449,2025-11-25 18:40:41.566,0.626281,0.390354,186.123077,0.000754,0.007858,0.980386,-0.127271,0.820847,9.893042,0.005910,0.010687,0.333983,0.935142,0.154179,-1.210123,100282.0000
1764076241670265282,2025-11-25 18:40:41.666,0.676736,0.435128,184.136490,-0.002409,0.007353,0.979287,-0.087112,-0.438385,9.881920,-0.001633,-0.013401,0.333390,0.935000,0.127876,-1.211164,100280.0000
1764076241770035930,2025-11-25 18:40:41.766,0.672543,0.570035,182.194000,0.004792,0.008710,0.978124,-0.029231,0.442917,9.707233,0.005013,-0.029074,0.338392,0.933425,0.103955,-1.212221,100276.0000
1764076241870164393,2025-11-25 18:40:41.866,0.634794,0.727572,180.327499,0.014560,0.014035,0.977050,0.167690,0.394594,9.820195,-0.003501,-0.028120,0.304586,0.935703,0.081474,-1.213839,100284.0000
1764076241970413356,2025-11-25 18:40:41.966,0.601464,0.823084,178.505447,0.018294,0.003559,0.979065,-0.007484,-0.533239,9.811099,0.008872,-0.013606,0.320418,0.932663,0.056073,-1.216777,100286.0000
1764076242074360189,2025-11-25 18:40:42.066,0.614214,0.816244,176.655655,0.021337,0.007352,0.978261,0.467705,0.693234,9.831656,0.012432,0.009939,0.327158,0.930178,0.035583,-1.213538,100286.0000
1764076242169116467,2025-11-25 18:40:42.166,0.663344,0.743315,174.776917,0.016261,0.005002,0.979184,0.110343,-0.690623,9.898814,0.013136,0.019369,0.321638,0.928124,0.009780,-1.213115,100281.0000
1764076242269521782,2025-11-25 18:40:42.266,0.721496,0.672031,172.890045,0.010782,0.009779,0.979634,-0.194589,-0.018917,9.934795,0.014089,0.017047,0.318163,0.927004,-0.017981,-1.215082,100282.0000
1764076242370064097,2025-11-25 18:40:42.366,0.735837,0.631241,171.035721,0.010314,0.016100,0.979569,0.182613,-0.108856,9.688324,0.003124,0.007179,0.312005,0.921598,-0.041401,-1.214164,100283.0000
1764076242469945226,2025-11-25 18:40:42.466,0.693957,0.618650,169.210938,0.008234,0.010650,0.978575,-0.208228,0.021343,9.670241,-0.006468,-0.003066,0.311079,0.919096,-0.061464,-1.213340,100280.0000
1764076242569832671,2025-11-25 18:40:42.566,0.638881,0.638383,167.426361,0.008738,0.009861,0.976959,0.038021,0.259186,9.664170,0.000393,-0.006932,0.307127,0.913214,-0.082518,-1.213413,100277.0000
1764076242670092115,2025-11-25 18:40:42.666,0.613837,0.677639,165.675552,0.011242,0.008537,0.976653,-0.017734,-0.225985,9.713813,0.002753,-0.001480,0.301154,0.907362,-0.103490,-1.209636,100276.0000
1764076242770376245,2025-11-25 18:40:42.766,0.638315,0.734227,163.938400,0.009777,0.007075,0.976236,0.269309,0.023616,9.920878,0.015553,-0.008913,0.296365,0.899542,-0.125528,-1.210630,100278.0000
1764076242870505282,2025-11-25 18:40:42.866,0.687177,0.784827,162.206543,0.013527,0.008204,0.978461,0.126995,0.114580,9.972949,0.017520,-0.004006,0.298224,0.893638,-0.147111,-1.213103,100282.0000
1764076242972665689,2025-11-25 18:40:42.966,0.723591,0.807038,160.465225,0.016973,0.012810,0.981956,0.289529,0.063380,10.016460,0.009369,0.001259,0.290862,0.884878,-0.167680,-1.212179,100283.0000
1764076243070477559,2025-11-25 18:40:43.066,0.732955,0.774224,158.697922,0.019108,0.010164,0.982041,0.046760,0.292504,9.681200,0.004574,0.019725,0.298823,0.877076,-0.189200,-1.211254,100279.0000
1764076243170611189,2025-11-25 18:40:43.166,0.712838,0.719680,156.917801,0.015210,0.010931,0.981885,-0.004259,0.201877,9.610559,-0.001301,0.014235,0.300193,0.867832,-0.209781,-1.210804,100277.0000
1764076243269903837,2025-11-25 18:40:43.266,0.691558,0.666282,155.137726,0.013173,0.011038,0.977563,-0.180726,0.132389,9.519941,0.000899,0.008565,0.297940,0.860032,-0.230823,-1.209886,100280.0000
1764076243369899059,2025-11-25 18:40:43.366,0.679445,0.638098,153.371017,0.011260,0.009968,0.975870,0.426329,-0.195000,9.787258,0.008375,0.002571,0.297356,0.851261,-0.251422,-1.210407,100282.0000
1764076243470455003,2025-11-25 18:40:43.466,0.694818,0.639405,151.613968,0.009050,0.009649,0.974575,0.268960,0.212139,9.871279,0.012964,-0.001190,0.296565,0.838659,-0.271521,-1.208951,100280.0000
1764076243570652263,2025-11-25 18:40:43.566,0.729499,0.649637,149.852356,0.012617,0.010068,0.976887,0.057978,-0.264834,9.741542,0.012894,0.012944,0.294878,0.827959,-0.292139,-1.209924,100279.0000
1764076243670593744,2025-11-25 18:40:43.666,0.767609,0.647565,148.066925,0.010293,0.010220,0.979957,0.405422,0.131213,9.973876,0.011698,0.002997,0.295058,0.816795,-0.311774,-1.209460,100283.0000
1764076243769456651,2025-11-25 18:40:43.766,0.800866,0.632960,146.273788,0.014008,0.010795,0.982630,0.415805,0.249881,9.903210,0.006981,0.011276,0.298162,0.803246,-0.329478,-1.207546,100279.0000
1764076243869791040,2025-11-25 18:40:43.866,0.819719,0.616412,144.477539,0.009990,0.011315,0.981299,0.016585,0.064569,9.795689,0.008957,0.007282,0.305371,0.791116,-0.346769,-1.209030,100282.0000
1764076243970646614,2025-11-25 18:40:43.966,0.815633,0.610748,142.696793,0.012407,0.014433,0.979392,0.233541,0.178922,9.626553,0.006765,0.006686,0.312233,0.777093,-0.365400,-1.205650,100279.0000
1764076244070037373,2025-11-25 18:40:44.066,0.801044,0.616272,140.935547,0.010018,0.015243,0.973975,0.148252,-0.074854,9.565462,0.007455,-0.003171,0.299914,0.763528,-0.384090,-1.205165,100282.0000
1764076244169547429,2025-11-25 18:40:44.166,0.763989,0.640548,139.273956,0.013286,0.019288,0.976137,-0.109134,0.043144,9.673453,-0.010635,0.005633,0.269756,0.748997,-0.401849,-1.205643,100280.0000
1764076244269571670,2025-11-25 18:40:44.266,0.714247,0.647423,137.749725,0.013494,0.012880,0.976649,0.053403,0.016648,9.749160,-0.007733,0.002642,0.246577,0.735940,-0.413392,-1.206238,100283.0000
1764076244370055392,2025-11-25 18:40:44.366,0.685375,0.615692,136.354584,0.016010,0.008565,0.982969,0.318644,0.024684,9.959074,0.000816,0.006065,0.224631,0.724802,-0.424002,-1.208320,100282.0000
1764076244470756188,2025-11-25 18:40:44.466,0.698519,0.548195,135.063065,0.015609,0.005427,0.984696,0.227083,0.262739,9.908896,0.014194,0.011031,0.210466,0.714163,-0.437861,-1.206026,100282.0000
1764076244570534651,2025-11-25 18:40:44.566,0.753467,0.492313,133.863831,0.009787,0.010557,0.979283,-0.189915,0.365887,9.668778,0.012629,-0.006560,0.184433,0.703522,-0.449840,-1.205205,100284.0000
1764076244670246706,2025-11-25 18:40:44.666,0.806197,0.636890,132.825211,0.007988,0.014034,0.973176,-0.016284,0.094260,9.587818,0.009193,-0.049765,0.165711,0.690010,-0.455664,-1.206362,100284.0000
1764076244770190188,2025-11-25 18:40:44.766,0.837142,0.922647,131.946777,0.025028,0.020630,0.970853,0.474918,0.356048,9.671655,0.000108,-0.075394,0.123594,0.680807,-0.467179,-1.206533,100276.0000
1764076244870012577,2025-11-25 18:40:44.866,0.832714,1.624103,131.395187,0.043576,0.024921,0.962592,0.753172,0.073951,10.169627,-0.001965,-0.187503,0.045924,0.669662,-0.472149,-1.213035,100274.0000
1764076244973363429,2025-11-25 18:40:44.967,0.822644,2.830161,131.222290,0.093113,0.018476,0.972348,1.656937,0.316179,9.994842,-0.000968,-0.217658,-0.007290,0.654649,-0.473415,-1.224353,100284.0000
1764076245069980762,2025-11-25 18:40:45.066,0.844067,3.895589,131.270386,0.150317,0.013712,0.979148,1.480846,0.178107,9.647595,0.004362,-0.161032,-0.024790,0.648342,-0.473109,-1.231007,100279.0000
1764076245170244447,2025-11-25 18:40:45.166,0.910705,4.636242,131.202759,0.188736,0.011106,0.980021,1.165604,0.560898,9.301980,0.019587,-0.091948,0.019811,0.636252,-0.472381,-1.239028,100278.0000
1764076245269933558,2025-11-25 18:40:45.266,0.999695,4.915218,130.820587,0.213870,0.012017,0.980651,1.927991,0.036843,10.228621,0.016398,0.007572,0.095675,0.633831,-0.476203,-1.238452,100277.0000
1764076245370162039,2025-11-25 18:40:45.366,1.055867,4.533961,130.308716,0.208581,0.028054,0.970547,1.789456,0.032142,9.359845,0.014273,0.128225,0.086000,0.629502,-0.482818,-1.233953,100283.0000
1764076245470899576,2025-11-25 18:40:45.466,1.032325,3.679723,129.837097,0.170783,0.035405,0.962188,0.987432,0.276204,9.327870,-0.009531,0.164227,0.061353,0.635350,-0.481653,-1.225388,100278.0000
1764076245570057428,2025-11-25 18:40:45.566,0.938624,2.825439,129.434387,0.124087,0.029027,0.959749,0.536924,-0.060800,9.406368,-0.011909,0.128517,0.057558,0.640153,-0.487313,-1.222965,100280.0000
1764076245670257058,2025-11-25 18:40:45.666,0.835307,2.359416,129.072998,0.081607,0.022780,0.965640,0.887961,0.189120,9.880308,-0.009015,0.029391,0.056125,0.640173,-0.487729,-1.220069,100279.0000
1764076245769876835,2025-11-25 18:40:45.766,0.796789,2.469407,128.757370,0.069653,0.014098,0.971558,0.691477,0.347683,9.795992,0.000706,-0.065014,0.047103,0.638244,-0.490106,-1.219041,100280.0000
1764076245870104761,2025-11-25 18:40:45.866,0.825899,3.068545,128.525131,0.085518,0.012430,0.976384,1.484420,0.171490,10.010414,0.016561,-0.132763,0.035573,0.630481,-0.491726,-1.226126,100282.0000
1764076245970513372,2025-11-25 18:40:45.966,0.867745,3.830109,128.350662,0.120858,0.015445,0.979687,2.313306,-0.053742,9.819677,0.005790,-0.121397,0.031302,0.621286,-0.497093,-1.229280,100280.0000
1764076246069896409,2025-11-25 18:40:46.066,0.863322,4.203030,128.164703,0.149349,0.019099,0.978663,0.889210,0.460428,9.576907,0.005849,-0.005867,0.027190,0.615501,-0.496205,-1.231135,100279.0000
1764076246169622076,2025-11-25 18:40:46.166,0.785455,3.899864,127.952393,0.147799,0.017368,0.975504,1.364491,0.106026,10.003722,-0.011954,0.110150,0.033772,0.616480,-0.495214,-1.229720,100276.0000
1764076246270141280,2025-11-25 18:40:46.266,0.665241,3.022628,127.722733,0.109935,0.014808,0.974110,1.107143,0.129555,9.742278,-0.018202,0.181011,0.036096,0.623744,-0.494114,-1.224546,100277.0000
1764076246370445428,2025-11-25 18:40:46.366,0.576501,2.010707,127.488884,0.054901,0.008963,0.974151,0.401809,0.175678,9.811572,-0.014325,0.162814,0.028324,0.632922,-0.497752,-1.217883,100282.0000
1764076246470710020,2025-11-25 18:40:46.466,0.557354,1.309838,127.236168,0.003211,0.005981,0.978578,-0.082487,-0.283249,9.929742,0.004003,0.078621,0.044309,0.637780,-0.496663,-1.212674,100278.0000
1764076246569885353,2025-11-25 18:40:46.566,0.618789,1.170857,126.910965,-0.018875,0.010949,0.980230,-0.259954,0.313698,9.789060,0.019408,-0.016335,0.064145,0.635873,-0.500869,-1.207765,100282.0000
1764076246670547816,2025-11-25 18:40:46.666,0.725620,1.530433,126.492958,-0.006210,0.020102,0.980019,0.062001,0.449397,9.746939,0.025996,-0.087645,0.074061,0.629565,-0.503865,-1.212443,100280.0000
1764076246772226798,2025-11-25 18:40:46.769,0.853160,2.052373,126.027687,0.025602,0.024248,0.978502,0.300923,0.256325,9.506869,0.027912,-0.088893,0.073847,0.619404,-0.510659,-1.215079,100281.0000
1764076246870033668,2025-11-25 18:40:46.866,0.959139,2.426966,125.616020,0.052729,0.027482,0.980411,0.682570,0.084318,9.768464,0.024665,-0.041721,0.064304,0.610236,-0.513597,-1.216344,100282.0000
1764076246970708094,2025-11-25 18:40:46.966,1.004706,2.504046,125.269157,0.066686,0.031655,0.975581,0.295741,0.227935,9.753233,0.000104,0.011445,0.054064,0.607356,-0.514534,-1.214843,100282.0000
1764076247070492668,2025-11-25 18:40:47.066,0.939101,2.319653,124.961166,0.060345,0.034139,0.973913,0.511362,0.142115,9.542100,-0.021348,0.049041,0.043789,0.604947,-0.515968,-1.214304,100280.0000
1764076247169973205,2025-11-25 18:40:47.166,0.802540,1.969664,124.660172,0.044586,0.027323,0.975109,0.340534,0.308972,9.923865,-0.028382,0.066986,0.044173,0.605422,-0.517399,-1.214289,100282.0000
1764076247270131909,2025-11-25 18:40:47.266,0.685181,1.610257,124.362038,0.024474,0.016722,0.977801,0.436315,0.529754,9.878463,-0.014116,0.058018,0.039643,0.604949,-0.520206,-1.211350,100273.0000
1764076247369873927,2025-11-25 18:40:47.366,0.692230,1.430043,124.070320,0.003103,0.003413,0.983512,-0.217925,-0.278913,9.722432,0.019025,0.010657,0.040856,0.606410,-0.519681,-1.209453,100283.0000
1764076247470384057,2025-11-25 18:40:47.466,0.829052,1.524044,123.806549,0.002054,0.004177,0.982972,-0.215594,0.343680,9.968578,0.042953,-0.036766,0.045452,0.602542,-0.523520,-1.209337,100278.0000
1764076247570885705,2025-11-25 18:40:47.566,0.977027,1.809155,123.560654,0.018714,0.021966,0.978403,0.464324,0.223914,9.668144,0.018003,-0.054588,0.039101,0.601078,-0.525468,-1.210731,100280.0000
1764076247670696205,2025-11-25 18:40:47.666,0.989203,2.104888,123.316345,0.033162,0.034535,0.972621,0.457665,0.443184,9.688198,-0.015255,-0.043517,0.029755,0.592880,-0.528380,-1.211048,100278.0000
1764076247770220316,2025-11-25 18:40:47.766,0.845614,2.263483,123.086678,0.043765,0.029110,0.970203,0.689221,0.153829,9.707924,-0.036781,-0.014553,0.029683,0.590932,-0.528450,-1.213908,100279.0000
1764076247869388001,2025-11-25 18:40:47.866,0.686564,2.274856,122.875076,0.039970,0.012921,0.978454,0.386734,0.092829,9.798179,-0.022144,0.008026,0.026451,0.588990,-0.528978,-1.215797,100285.0000
1764076247970589871,2025-11-25 18:40:47.966,0.660302,2.194130,122.689285,0.037469,0.000121,0.982189,0.308714,0.204133,9.852671,0.017320,0.020013,0.021178,0.586583,-0.529933,-1.215266,100282.0000
1764076248069527130,2025-11-25 18:40:48.066,0.771375,2.111295,122.518211,0.029183,0.002776,0.981804,-0.062852,-0.278134,9.536080,0.030626,0.018637,0.024221,0.585151,-0.529909,-1.213800,100279.0000
1764076248170330797,2025-11-25 18:40:48.166,0.901056,2.093503,122.336151,0.026631,0.017234,0.976080,0.091374,0.368599,9.825463,0.025829,-0.001885,0.036082,0.583723,-0.532233,-1.210372,100278.0000
1764076248270137519,2025-11-25 18:40:48.266,0.918112,2.161258,122.169548,0.024655,0.030081,0.974819,0.287646,0.145347,9.539906,-0.008900,-0.018626,0.026444,0.584196,-0.534609,-1.209862,100278.0000
1764076248370485204,2025-11-25 18:40:48.366,0.828441,2.287755,122.021111,0.026641,0.022767,0.977603,0.185158,0.253464,10.145188,-0.017995,-0.025879,0.014785,0.580322,-0.535632,-1.212197,100280.0000
1764076248469957482,2025-11-25 18:40:48.466,0.749828,2.419579,121.880257,0.035378,0.008360,0.980662,0.787991,-0.086650,9.766143,-0.006733,-0.020301,0.014896,0.578386,-0.531901,-1.216078,100283.0000
1764076248570067834,2025-11-25 18:40:48.566,0.758359,2.526045,121.713333,0.043630,0.008899,0.981072,0.470580,0.517558,10.111773,0.006593,-0.008611,0.015157,0.576433,-0.535284,-1.217442,100274.0000
1764076248670031445,2025-11-25 18:40:48.666,0.813711,2.494824,121.554314,0.051151,0.011498,0.977632,0.577755,0.143743,9.703638,0.009815,0.025331,0.020776,0.576931,-0.535709,-1.215035,100284.0000
1764076248769978408,2025-11-25 18:40:48.766,0.852485,2.349117,121.418442,0.043492,0.018900,0.977280,0.606351,0.077493,9.806497,-0.000776,0.039592,0.016583,0.575501,-0.536152,-1.213081,100278.0000
1764076248870189426,2025-11-25 18:40:48.866,0.850663,2.181547,121.311783,0.029914,0.016193,0.974839,-0.031043,0.104753,9.697287,0.002460,0.029685,0.016145,0.577894,-0.538530,-1.213080,100283.0000
1764076248970062074,2025-11-25 18:40:48.966,0.837019,2.105366,121.228889,0.020289,0.014716,0.981005,0.443955,0.071676,9.913034,0.003777,-0.003944,0.001713,0.574543,-0.538972,-1.210616,100286.0000
1764076249070032982,2025-11-25 18:40:49.066,0.851934,2.151318,121.142914,0.022881,0.008312,0.980632,-0.028745,-0.122064,10.022322,0.005804,-0.024041,0.014392,0.577429,-0.538491,-1.211147,100280.0000
1764076249170140370,2025-11-25 18:40:49.166,0.887632,2.272854,121.036346,0.030177,0.012968,0.977543,0.440960,-0.024951,9.652356,0.004736,-0.024967,0.012566,0.576920,-0.539510,-1.214014,100279.0000
1764076249270151981,2025-11-25 18:40:49.266,0.885989,2.349694,120.916451,0.039226,0.022496,0.974789,0.330756,0.835582,9.853054,-0.008098,-0.002464,0.009172,0.571639,-0.538558,-1.212987,100276.0000
1764076249369686000,2025-11-25 18:40:49.366,0.844661,2.316840,120.811852,0.039516,0.015915,0.974803,0.520489,-0.149052,9.568398,-0.006293,0.017823,0.014719,0.573576,-0.538519,-1.211572,100283.0000
1764076249470891426,2025-11-25 18:40:49.466,0.817679,2.246017,120.709305,0.033133,0.009662,0.980951,0.210144,0.187179,9.862510,-0.004126,0.015851,0.007166,0.572582,-0.538605,-1.215409,100280.0000
1764076249570460389,2025-11-25 18:40:49.566,0.847844,2.198213,120.620811,0.027417,0.004053,0.981874,0.029326,-0.032618,9.948368,0.013515,0.007589,0.011939,0.572560,-0.540079,-1.217312,100280.0000
1764076249670095629,2025-11-25 18:40:49.666,0.902224,2.194986,120.528893,0.027233,0.014200,0.980617,0.514509,0.097037,9.701713,0.010727,-0.006335,0.014140,0.573078,-0.539507,-1.212994,100285.0000
1764076249769409685,2025-11-25 18:40:49.766,0.916095,2.226188,120.421944,0.030255,0.021728,0.975983,0.247659,0.230117,9.849223,-0.002643,-0.007135,0.006093,0.570203,-0.540902,-1.210523,100281.0000
1764076249870078333,2025-11-25 18:40:49.866,0.865777,2.260362,120.314484,0.035110,0.018627,0.973595,0.591488,0.124976,9.691274,-0.002200,-0.005629,0.013829,0.570182,-0.542843,-1.211938,100276.0000
1764076249970261037,2025-11-25 18:40:49.966,0.796602,2.265095,120.217529,0.036579,0.014182,0.977461,0.419948,0.325764,9.706116,-0.002005,-0.000729,0.007318,0.571141,-0.541904,-1.212929,100280.0000
1764076250070264166,2025-11-25 18:40:50.066,0.782740,2.269286,120.141296,0.032146,0.006239,0.980092,-0.096687,-0.043314,9.570025,-0.000422,-0.000997,0.007634,0.569225,-0.539534,-1.213419,100276.0000
1764076250170085870,2025-11-25 18:40:50.166,0.843077,2.310572,120.096176,0.029827,0.006311,0.980564,0.199009,0.078222,9.891716,0.019382,-0.013085,0.000611,0.569690,-0.541930,-1.213871,100278.0000
1764076250269652092,2025-11-25 18:40:50.266,0.912394,2.387921,120.055695,0.032190,0.013955,0.977619,0.407653,0.038566,9.684861,0.003331,-0.013265,0.009552,0.566332,-0.542393,-1.212370,100284.0000
1764076250370190629,2025-11-25 18:40:50.366,0.934291,2.480861,120.000618,0.036823,0.021619,0.976335,0.362954,0.238175,9.749992,-0.006358,-0.013882,0.002677,0.565843,-0.543828,-1.212340,100285.0000
1764076250470436055,2025-11-25 18:40:50.466,0.888416,2.534101,119.933754,0.041851,0.017594,0.974871,0.337645,0.067799,9.855629,-0.014650,0.000390,0.004821,0.567764,-0.543830,-1.212850,100277.0000
1764076250569991184,2025-11-25 18:40:50.566,0.815510,2.493583,119.872063,0.043544,0.013596,0.976658,0.811015,0.096140,9.765691,-0.012431,0.019184,-0.006964,0.565829,-0.542924,-1.214762,100278.0000
1764076250669792388,2025-11-25 18:40:50.666,0.786265,2.410496,119.834908,0.034787,0.007176,0.979058,0.319672,0.185989,9.774158,0.002226,0.005621,-0.007768,0.565367,-0.540517,-1.213828,100284.0000
1764076250773270647,2025-11-25 18:40:50.766,0.827884,2.339070,119.809143,0.032107,0.006321,0.981172,0.529466,0.049889,9.610892,0.017138,0.008941,-0.003012,0.571138,-0.541914,-1.213411,100286.0000
1764076250870205981,2025-11-25 18:40:50.866,0.907274,2.319846,119.781425,0.027798,0.011723,0.979648,0.257275,0.065444,9.694884,0.012737,-0.011355,0.003699,0.568250,-0.542872,-1.212872,100282.0000
1764076250970288962,2025-11-25 18:40:50.966,0.965657,2.379435,119.760139,0.027961,0.018334,0.976771,0.217706,0.243646,9.866144,0.012830,-0.018875,-0.003657,0.569215,-0.543803,-1.211909,100282.0000
1764076251070356943,2025-11-25 18:40:51.066,0.959539,2.519814,119.769348,0.033936,0.020937,0.975028,0.133686,-0.033453,9.700582,-0.007338,-0.029113,-0.008403,0.568239,-0.541957,-1.214812,100276.0000
1764076251170883295,2025-11-25 18:40:51.166,0.900920,2.658811,119.776917,0.044841,0.016843,0.977438,0.373887,-0.247805,9.535016,-0.012770,-0.013071,-0.020113,0.566806,-0.542879,-1.212851,100274.0000
1764076251269617240,2025-11-25 18:40:51.266,0.844290,2.706070,119.774155,0.049416,0.009936,0.981058,0.749038,0.231598,10.070134,-0.006078,0.013979,-0.019453,0.567776,-0.539083,-1.214367,100284.0000
1764076251369596999,2025-11-25 18:40:51.366,0.822268,2.613185,119.780426,0.047806,0.006875,0.979743,0.574462,0.283198,9.830544,-0.006770,0.028687,-0.011716,0.569209,-0.540520,-1.214848,100280.0000
1764076251472787184,2025-11-25 18:40:51.466,0.848926,2.479475,119.768478,0.037394,0.005316,0.978255,0.329435,0.279712,9.929481,0.007739,0.019285,0.002041,0.570661,-0.539548,-1.214403,100276.0000
1764076251569616443,2025-11-25 18:40:51.566,0.896315,2.335111,119.737961,0.032941,0.012560,0.978837,0.292401,0.063034,9.660476,0.009176,0.024344,-0.001969,0.570676,-0.539507,-1.212477,100284.0000
1764076251670004499,2025-11-25 18:40:51.666,0.919510,2.241691,119.708900,0.028877,0.017810,0.977687,0.424752,0.227135,9.891992,0.003218,0.013534,-0.001873,0.572599,-0.541389,-1.211514,100276.0000
1764076251770228887,2025-11-25 18:40:51.766,0.918934,2.219735,119.683723,0.025543,0.014139,0.976134,0.216113,-0.077011,9.884952,0.000452,-0.002989,0.001923,0.571659,-0.540865,-1.209100,100273.0000
1764076251869618276,2025-11-25 18:40:51.866,0.904161,2.247521,119.643715,0.028782,0.014928,0.977307,0.745555,0.152312,9.748825,-0.001458,-0.007365,-0.002657,0.573563,-0.538082,-1.213505,100278.0000
1764076251969666110,2025-11-25 18:40:51.966,0.888998,2.328849,119.614769,0.028582,0.013586,0.977982,0.124305,0.232637,9.544426,-0.007042,-0.017786,-0.005941,0.570651,-0.541459,-1.214373,100283.0000
1764076252070267665,2025-11-25 18:40:52.066,0.887546,2.411219,119.594063,0.036798,0.011509,0.978555,0.608876,0.209150,9.630700,0.005030,-0.006341,-0.006201,0.573086,-0.539486,-1.212031,100278.0000
1764076252170099109,2025-11-25 18:40:52.166,0.884313,2.449194,119.573990,0.037799,0.011169,0.979748,0.178085,0.029930,9.642470,-0.000940,0.000779,0.002853,0.572106,-0.540009,-1.213935,100276.0000
1764076252269372757,2025-11-25 18:40:52.266,0.883670,2.446979,119.555443,0.036490,0.012334,0.977610,0.253012,0.095943,9.969516,-0.001145,-0.003722,-0.004979,0.571629,-0.541414,-1.212462,100283.0000
1764076252370224609,2025-11-25 18:40:52.366,0.876178,2.434621,119.558708,0.039234,0.013132,0.978118,0.429050,-0.038708,9.911179,0.000312,0.003202,-0.002246,0.572115,-0.539044,-1.213469,100284.0000
1764076252470470961,2025-11-25 18:40:52.466,0.862132,2.385014,119.568748,0.036355,0.013531,0.977082,0.466617,-0.022155,9.727386,-0.000375,0.008634,-0.011169,0.572576,-0.540038,-1.215387,100278.0000
1764076252569798165,2025-11-25 18:40:52.566,0.865199,2.341172,119.597969,0.031318,0.012386,0.977637,0.254324,0.004791,9.572015,0.006073,0.002364,-0.023440,0.574540,-0.536624,-1.212578,100281.0000
1764076252670066239,2025-11-25 18:40:52.666,0.887718,2.344465,119.663864,0.029168,0.011301,0.977471,0.127521,0.273780,9.708367,-0.002648,-0.013426,-0.021028,0.575976,-0.536638,-1.213562,100287.0000
1764076252770178387,2025-11-25 18:40:52.766,0.918634,2.423573,119.723053,0.029724,0.010175,0.978415,0.072298,0.021821,9.775017,0.003140,-0.018194,-0.014019,0.575981,-0.539453,-1.211112,100282.0000
1764076252870594035,2025-11-25 18:40:52.866,0.932435,2.525639,119.772041,0.038329,0.013720,0.979630,0.508833,0.349062,10.029713,-0.000493,-0.014401,-0.014288,0.575984,-0.535672,-1.213095,100285.0000
1764076252970459813,2025-11-25 18:40:52.966,0.911518,2.584004,119.844482,0.040238,0.014411,0.977018,0.584225,0.262472,9.882515,-0.000874,-0.004934,-0.024920,0.576450,-0.537124,-1.214043,100282.0000
1764076253070057368,2025-11-25 18:40:53.066,0.866345,2.612981,119.917183,0.040464,0.011325,0.976329,-0.008404,0.195086,9.675398,-0.004477,-0.006844,-0.012719,0.574537,-0.534276,-1.214540,100283.0000
1764076253170310350,2025-11-25 18:40:53.166,0.825148,2.599985,119.994011,0.042764,0.010994,0.978087,0.719708,0.082063,9.681170,-0.002163,0.008146,-0.025854,0.577422,-0.533796,-1.215072,100280.0000
1764076253269908201,2025-11-25 18:40:53.266,0.816098,2.554982,120.083977,0.040489,0.006811,0.977705,0.582120,0.123981,9.766719,0.006509,0.016335,-0.027849,0.580313,-0.531415,-1.216114,100280.0000
1764076253370485831,2025-11-25 18:40:53.366,0.847918,2.501414,120.180351,0.035178,0.006159,0.977899,0.414712,-0.029088,9.662758,0.008716,0.017156,-0.019925,0.583671,-0.533310,-1.216134,100281.0000
1764076253469943701,2025-11-25 18:40:53.466,0.895774,2.472121,120.282227,0.033350,0.010464,0.978268,0.242231,0.240947,9.582831,0.007568,0.008548,-0.022624,0.584667,-0.530389,-1.213786,100281.0000
1764076253570019960,2025-11-25 18:40:53.566,0.928475,2.479038,120.381783,0.032071,0.010484,0.978923,0.453158,-0.034855,9.636690,0.010881,-0.007672,-0.012250,0.586578,-0.532301,-1.214266,100285.0000
1764076253670121090,2025-11-25 18:40:53.666,0.939136,2.492278,120.447014,0.037616,0.012948,0.979494,0.646621,0.012516,9.762105,0.004485,0.001274,-0.016814,0.586582,-0.530879,-1.214769,100285.0000
1764076253769948238,2025-11-25 18:40:53.766,0.924397,2.502197,120.521355,0.034990,0.014510,0.977514,0.550873,-0.104370,9.721346,0.004987,-0.003020,-0.025798,0.588054,-0.526553,-1.213894,100280.0000
1764076253870266757,2025-11-25 18:40:53.866,0.900976,2.515031,120.620308,0.037120,0.012594,0.976444,0.296715,0.070417,9.549429,0.002612,-0.000876,-0.027734,0.589497,-0.525134,-1.214900,100284.0000
1764076253970913201,2025-11-25 18:40:53.966,0.876086,2.532636,120.731300,0.037340,0.009522,0.977874,0.636500,-0.037750,9.831329,0.003973,-0.004015,-0.025592,0.587564,-0.526108,-1.215338,100274.0000
1764076254070727960,2025-11-25 18:40:54.066,0.868067,2.555308,120.831032,0.040148,0.008624,0.979412,0.780636,0.140261,9.923639,-0.001876,-0.002013,-0.017577,0.591902,-0.524655,-1.215424,100279.0000
1764076254169576571,2025-11-25 18:40:54.166,0.873448,2.572564,120.931755,0.037886,0.008994,0.978606,-0.018162,0.049651,9.504673,-0.004898,-0.006090,-0.019482,0.594788,-0.523230,-1.216452,100281.0000
1764076254269872904,2025-11-25 18:40:54.266,0.884311,2.549661,121.029312,0.039238,0.008403,0.978800,0.402734,-0.184691,9.660892,0.006331,0.008214,-0.019717,0.595747,-0.524648,-1.215962,100277.0000
1764076254369684256,2025-11-25 18:40:54.366,0.890452,2.481611,121.107262,0.040185,0.011030,0.979142,0.255700,-0.122571,9.772997,-0.003705,0.013181,-0.021083,0.596724,-0.520833,-1.216517,100280.0000
1764076254470372441,2025-11-25 18:40:54.466,0.898387,2.381953,121.190422,0.035830,0.010748,0.978114,0.335970,-0.169241,9.994082,-0.002586,0.012292,-0.024579,0.598183,-0.523143,-1.213132,100284.0000
1764076254570096608,2025-11-25 18:40:54.566,0.894937,2.325815,121.265663,0.032856,0.010740,0.977156,0.101184,0.014023,9.729683,-0.001745,0.005616,-0.019015,0.601083,-0.519797,-1.213707,100287.0000
1764076254670126256,2025-11-25 18:40:54.666,0.889760,2.325458,121.323204,0.029229,0.010353,0.976533,0.446925,0.225875,9.881361,0.001908,-0.006725,-0.019913,0.600587,-0.521252,-1.214641,100276.0000
1764076254772000386,2025-11-25 18:40:54.768,0.894220,2.361223,121.360237,0.031211,0.011203,0.978272,0.519305,0.229851,9.809614,0.001383,-0.000076,-0.007274,0.600590,-0.522187,-1.213663,100279.0000
1764076254870445034,2025-11-25 18:40:54.866,0.900519,2.407145,121.404152,0.031835,0.011663,0.977662,0.309295,0.172066,9.801131,0.002491,-0.005539,-0.018597,0.602995,-0.516993,-1.217149,100284.0000
1764076254970163441,2025-11-25 18:40:54.966,0.896148,2.489815,121.452446,0.034177,0.011010,0.977999,0.281892,-0.197162,10.001981,-0.007224,-0.019160,-0.014296,0.603009,-0.518843,-1.214232,100282.0000
1764076255070528126,2025-11-25 18:40:55.066,0.885238,2.567655,121.502525,0.041229,0.012468,0.977909,0.380596,0.164949,9.914716,-0.009508,-0.013614,-0.016449,0.600125,-0.517433,-1.214692,100286.0000
1764076255169858071,2025-11-25 18:40:55.166,0.874785,2.607845,121.551743,0.041519,0.010893,0.976328,0.145864,0.043782,9.774340,-0.001236,0.001764,-0.024406,0.604440,-0.517454,-1.216682,100282.0000
1764076255269719219,2025-11-25 18:40:55.266,0.861675,2.600471,121.611153,0.041969,0.011072,0.977081,-0.016416,0.148130,9.671265,0.000954,0.004552,-0.020400,0.603474,-0.517469,-1.217149,100280.0000
1764076255370349774,2025-11-25 18:40:55.366,0.855732,2.543161,121.656570,0.038342,0.009741,0.979589,0.830681,0.050603,9.967937,-0.002108,0.008795,-0.019088,0.604935,-0.514586,-1.216733,100282.0000
1764076255469754404,2025-11-25 18:40:55.466,0.861840,2.479355,121.684578,0.036630,0.009985,0.979820,0.512467,0.118193,9.762431,0.003816,0.004987,-0.000639,0.610242,-0.514054,-1.215374,100285.0000
1764076255570077367,2025-11-25 18:40:55.566,0.872661,2.441531,121.701324,0.031293,0.011458,0.979551,-0.020727,0.040548,9.696653,0.008019,0.001408,0.001403,0.607839,-0.512642,-1.215842,100280.0000
1764076255669962422,2025-11-25 18:40:55.666,0.875656,2.464205,121.703506,0.033274,0.011878,0.978416,0.260210,-0.138996,9.539431,0.006331,-0.008255,0.000833,0.610230,-0.516442,-1.215338,100282.0000
1764076255770613552,2025-11-25 18:40:55.766,0.868866,2.529463,121.703560,0.035638,0.013129,0.977478,0.194625,-0.180717,9.773954,0.002223,-0.007822,-0.010078,0.609269,-0.513144,-1.217300,100280.0000
1764076255870159755,2025-11-25 18:40:55.866,0.855133,2.590022,121.724915,0.038244,0.011563,0.975524,0.518308,-0.123115,9.837556,-0.000322,-0.015090,-0.014162,0.609287,-0.511680,-1.215878,100281.0000
1764076255970035440,2025-11-25 18:40:55.966,0.852096,2.632689,121.756348,0.040575,0.011045,0.975808,0.193192,0.152385,9.637994,0.003996,-0.006376,-0.011580,0.610699,-0.514113,-1.218269,100276.0000
1764076256070173848,2025-11-25 18:40:56.066,0.865066,2.638841,121.799789,0.043174,0.009523,0.977830,0.693348,0.185551,9.721762,-0.001606,-0.004282,-0.007135,0.610714,-0.511247,-1.218313,100282.0000
1764076256169894514,2025-11-25 18:40:56.166,0.882239,2.605255,121.850067,0.040957,0.011775,0.979951,0.186016,0.024487,9.640276,0.005731,0.001381,-0.015820,0.611214,-0.512139,-1.215418,100284.0000
1764076256269431848,2025-11-25 18:40:56.266,0.895116,2.576527,121.885681,0.040105,0.010003,0.978548,0.857452,-0.048336,9.898914,0.009047,0.001513,-0.008143,0.614108,-0.509748,-1.215979,100282.0000
1764076256370016014,2025-11-25 18:40:56.366,0.901707,2.555600,121.934700,0.036456,0.014376,0.979011,0.548858,-0.177231,9.899491,0.008536,0.005868,-0.019316,0.613157,-0.510667,-1.214024,100283.0000
1764076256472794440,2025-11-25 18:40:56.466,0.896009,2.536243,122.024078,0.036165,0.013605,0.975978,-0.037333,0.220109,9.559699,-0.002874,0.002309,-0.024963,0.616032,-0.510684,-1.215511,100281.0000
1764076256569980273,2025-11-25 18:40:56.566,0.869567,2.555311,122.127251,0.033905,0.012070,0.977033,0.483860,0.033954,10.050140,-0.002302,-0.008487,-0.031625,0.615072,-0.508798,-1.216489,100285.0000
1764076256670407033,2025-11-25 18:40:56.666,0.843461,2.595786,122.223846,0.038295,0.008104,0.978177,0.578880,-0.077776,9.979606,-0.002981,-0.010310,-0.023968,0.618436,-0.506436,-1.218501,100280.0000
1764076256770440144,2025-11-25 18:40:56.766,0.837973,2.637734,122.323624,0.039289,0.008373,0.978827,0.432372,0.131098,9.878461,-0.000166,-0.008751,-0.024911,0.616520,-0.503121,-1.219486,100280.0000
1764076256870151255,2025-11-25 18:40:56.866,0.861468,2.657528,122.425240,0.043900,0.008326,0.978859,0.180223,0.061031,9.689921,0.008253,0.002688,-0.023771,0.618934,-0.505448,-1.217078,100278.0000
1764076256970076995,2025-11-25 18:40:56.966,0.890792,2.612619,122.536560,0.040752,0.008067,0.977771,0.718651,0.377077,9.729480,0.007144,0.010692,-0.015107,0.622308,-0.502587,-1.218135,100284.0000
1764076257070252606,2025-11-25 18:40:57.066,0.915091,2.562797,122.638687,0.036927,0.012485,0.977231,0.422232,0.029912,9.639698,0.004710,0.011726,-0.027591,0.624248,-0.502537,-1.216238,100284.0000
1764076257169886273,2025-11-25 18:40:57.166,0.918287,2.513372,122.751572,0.035090,0.013262,0.977814,-0.063882,0.092659,9.574899,-0.002944,0.008214,-0.022158,0.625227,-0.501547,-1.214823,100282.0000
1764076257270299440,2025-11-25 18:40:57.266,0.904589,2.495081,122.870293,0.032066,0.011878,0.979030,0.294928,0.100797,9.802453,-0.004364,-0.009006,-0.029592,0.630020,-0.499218,-1.218781,100280.0000
1764076257373938477,2025-11-25 18:40:57.366,0.882540,2.510144,122.973923,0.036250,0.010262,0.978785,0.526109,0.285105,9.862138,-0.004209,-0.001859,-0.024579,0.629053,-0.499233,-1.219248,100280.0000
1764076257471154328,2025-11-25 18:40:57.466,0.858004,2.544004,123.067429,0.038081,0.009456,0.978829,0.462848,-0.003679,9.888376,-0.005767,-0.003144,-0.028919,0.630028,-0.498253,-1.218315,100278.0000
1764076257570634717,2025-11-25 18:40:57.566,0.851781,2.579028,123.151085,0.040124,0.009730,0.977302,0.150387,0.200825,9.696550,-0.001232,0.002752,-0.029498,0.628107,-0.496839,-1.218789,100281.0000
1764076257670162606,2025-11-25 18:40:57.666,0.847388,2.606178,123.236916,0.039173,0.007716,0.976667,0.235572,0.097111,9.856890,0.002534,-0.002674,-0.019077,0.631483,-0.498216,-1.216892,100282.0000
1764076257770202199,2025-11-25 18:40:57.766,0.842887,2.624304,123.305054,0.040364,0.011289,0.977655,0.357475,-0.014918,9.949673,-0.000846,-0.005424,-0.021608,0.630523,-0.493972,-1.219350,100278.0000
1764076257870509902,2025-11-25 18:40:57.866,0.831251,2.617874,123.357971,0.038772,0.008691,0.977607,0.293246,-0.197392,10.019879,-0.001010,-0.003536,-0.013051,0.632450,-0.493486,-1.219386,100275.0000
1764076257970508643,2025-11-25 18:40:57.966,0.836642,2.587851,123.392410,0.043069,0.008825,0.979378,0.652838,0.070711,9.964224,0.010435,0.007575,-0.014872,0.634391,-0.492491,-1.217985,100281.0000
1764076258070257513,2025-11-25 18:40:58.066,0.860406,2.535967,123.425751,0.038575,0.010732,0.978951,0.427629,0.194615,9.988889,0.012045,0.012781,-0.015660,0.636787,-0.494391,-1.217991,100281.0000
1764076258169586624,2025-11-25 18:40:58.166,0.880464,2.498452,123.482430,0.036930,0.015748,0.977154,0.392788,0.398256,9.891205,0.003226,0.000979,-0.020591,0.637293,-0.491025,-1.217087,100283.0000
1764076258269938865,2025-11-25 18:40:58.266,0.878385,2.498824,123.555420,0.032141,0.011377,0.977781,0.256517,-0.040229,9.799335,-0.005051,-0.008168,-0.022868,0.639700,-0.491481,-1.216634,100286.0000
1764076258368909087,2025-11-25 18:40:58.366,0.862553,2.542206,123.611946,0.035831,0.010386,0.977277,0.094898,0.003777,9.766477,-0.004148,-0.011158,-0.009715,0.636808,-0.488679,-1.219042,100278.0000
1764076258470148772,2025-11-25 18:40:58.466,0.848082,2.602535,123.641777,0.036882,0.009003,0.977440,0.276068,0.198334,9.655303,-0.006374,-0.017544,-0.009282,0.640670,-0.490044,-1.216670,100277.0000
1764076258570053735,2025-11-25 18:40:58.566,0.845433,2.639237,123.645973,0.041912,0.011485,0.977694,0.550037,0.048093,9.921626,-0.004945,-0.010230,-0.007407,0.641622,-0.488180,-1.219120,100276.0000
1764076258670719568,2025-11-25 18:40:58.666,0.837337,2.682991,123.636948,0.042069,0.009234,0.977077,0.404668,0.091899,9.777100,0.007308,-0.008257,-0.001851,0.638232,-0.491082,-1.219989,100284.0000
1764076258770161717,2025-11-25 18:40:58.766,0.827113,2.716625,123.595741,0.045940,0.010580,0.978730,0.244816,0.261857,9.795570,0.003810,0.003833,0.005501,0.638263,-0.489588,-1.217123,100280.0000
1764076258870415309,2025-11-25 18:40:58.866,0.815980,2.712718,123.526169,0.041941,0.012028,0.978134,0.147612,0.153237,9.735162,0.000168,-0.000055,0.012120,0.637772,-0.486785,-1.220048,100280.0000
1764076258970443587,2025-11-25 18:40:58.966,0.810203,2.682156,123.443962,0.043534,0.012150,0.979069,0.218454,0.143165,9.914659,0.005779,0.004708,0.004332,0.635811,-0.491133,-1.221879,100283.0000
1764076259070273272,2025-11-25 18:40:59.066,0.812046,2.653671,123.363464,0.040512,0.011905,0.977816,0.382316,0.248569,9.839451,0.005067,-0.000710,0.015596,0.637749,-0.491561,-1.219975,100281.0000
1764076259169992309,2025-11-25 18:40:59.166,0.828203,2.647444,123.280296,0.040144,0.013400,0.977616,0.777430,-0.080504,10.026136,0.001065,0.002939,0.008917,0.640156,-0.492018,-1.219522,100278.0000
1764076259269746142,2025-11-25 18:40:59.266,0.836550,2.641281,123.181587,0.039987,0.013178,0.977985,0.306495,0.066617,9.993224,-0.002315,-0.002034,0.006055,0.636794,-0.491545,-1.218998,100282.0000
1764076259370171475,2025-11-25 18:40:59.366,0.840660,2.613378,123.066406,0.041430,0.013151,0.977093,0.148448,0.235755,9.860225,0.001698,0.005374,0.013322,0.635339,-0.492995,-1.219436,100272.0000
1764076259469474438,2025-11-25 18:40:59.466,0.843825,2.588788,122.957367,0.038247,0.012551,0.977113,0.192467,0.098167,9.666697,0.001803,0.005453,0.014885,0.635832,-0.492962,-1.217999,100284.0000
1764076259570178975,2025-11-25 18:40:59.566,0.847871,2.596726,122.849953,0.037257,0.015412,0.976799,0.129519,0.330122,9.728658,-0.001353,-0.003246,0.006157,0.636315,-0.493427,-1.217517,100276.0000
1764076259669499383,2025-11-25 18:40:59.666,0.851441,2.639852,122.743553,0.037282,0.015009,0.978065,0.377011,0.432893,9.634818,-0.000804,-0.012212,0.008818,0.637751,-0.492497,-1.218998,100279.0000
1764076259773097938,2025-11-25 18:40:59.766,0.853912,2.710917,122.636932,0.042726,0.013289,0.978300,-0.018525,0.239264,9.551904,-0.003507,-0.010534,0.015038,0.633892,-0.493012,-1.219896,100271.0000
1764076259870283438,2025-11-25 18:40:59.866,0.843276,2.749229,122.539932,0.047253,0.015562,0.979989,0.732347,0.174435,9.926257,0.005972,0.001307,0.009853,0.630507,-0.496371,-1.219795,100284.0000
1764076259970632457,2025-11-25 18:40:59.966,0.826753,2.722356,122.447891,0.046816,0.013913,0.978072,0.640931,0.245515,10.038805,-0.001521,0.007632,0.014600,0.632461,-0.494400,-1.217446,100283.0000
1764076260070373345,2025-11-25 18:41:00.066,0.813557,2.657784,122.359329,0.041119,0.012007,0.976368,0.387728,-0.201345,9.820763,-0.000149,0.008978,0.003919,0.630984,-0.497324,-1.219787,100277.0000
1764076260170004364,2025-11-25 18:41:00.166,0.804856,2.601901,122.283325,0.039390,0.013042,0.977891,0.150070,0.306461,9.737719,0.004776,0.005102,-0.003229,0.633907,-0.493916,-1.217474,100282.0000
1764076260270700530,2025-11-25 18:41:00.266,0.806327,2.585777,122.219635,0.037785,0.010086,0.977821,0.507348,0.047539,9.778527,0.007252,0.000661,0.001198,0.633894,-0.494892,-1.218423,100282.0000
1764076260370077401,2025-11-25 18:41:00.366,0.819604,2.608167,122.160561,0.036643,0.014261,0.977993,-0.115404,0.069500,9.512290,-0.002020,-0.008374,-0.000668,0.633415,-0.495362,-1.217927,100276.0000
1764076260470381197,2025-11-25 18:41:00.466,0.831814,2.683977,122.111732,0.037241,0.011458,0.976083,0.029055,0.279705,9.608674,-0.000760,-0.012952,-0.000910,0.630987,-0.494488,-1.221275,100285.0000
1764076260570526382,2025-11-25 18:41:00.566,0.835423,2.779308,122.069405,0.041293,0.014057,0.977919,0.343881,0.046400,9.942729,-0.002707,-0.015959,-0.002114,0.628589,-0.495891,-1.219292,100280.0000
1764076260670366938,2025-11-25 18:41:00.666,0.838218,2.822643,122.030769,0.046977,0.013452,0.978516,0.615479,0.134963,9.820031,0.000423,-0.003951,-0.000261,0.629070,-0.493531,-1.220780,100279.0000
1764076260769870308,2025-11-25 18:41:00.766,0.842335,2.825528,122.001480,0.046734,0.011799,0.979242,0.585672,-0.133623,9.850080,0.008099,0.000278,-0.008249,0.630505,-0.494490,-1.221268,100279.0000
1764076260870176549,2025-11-25 18:41:00.866,0.844067,2.807863,121.952293,0.047096,0.012852,0.979051,0.250923,0.071545,9.839434,-0.002288,0.002779,0.000702,0.628109,-0.494948,-1.219781,100280.0000
1764076260970378178,2025-11-25 18:41:00.966,0.851942,2.747361,121.910439,0.047055,0.013509,0.978002,0.777096,0.410749,9.833530,0.004732,0.017673,-0.006088,0.630013,-0.495936,-1.221721,100280.0000
1764076261069860437,2025-11-25 18:41:01.066,0.846209,2.692501,121.865906,0.039764,0.014588,0.977119,0.524166,0.233891,9.852343,-0.002759,0.004522,0.002540,0.631467,-0.496844,-1.219802,100274.0000
1764076261170393271,2025-11-25 18:41:01.166,0.831497,2.689367,121.797974,0.037123,0.011691,0.975907,-0.014422,0.194367,9.678262,-0.001751,-0.003333,0.011787,0.630520,-0.495395,-1.218847,100274.0000
1764076261269532845,2025-11-25 18:41:01.266,0.812972,2.723481,121.725349,0.038679,0.013916,0.976327,0.303195,0.041733,9.799006,-0.001109,-0.012839,0.009070,0.630500,-0.497804,-1.219773,100272.0000
1764076261370469919,2025-11-25 18:41:01.366,0.795563,2.770218,121.662224,0.040147,0.012551,0.978343,0.445632,0.140495,9.983631,0.001113,-0.008185,0.009922,0.630491,-0.497357,-1.221224,100276.0000
1764076261471350474,2025-11-25 18:41:01.466,0.782498,2.653387,121.629936,0.046673,0.012223,0.984377,0.578492,-0.053377,9.922678,0.006740,0.061369,-0.012301,0.631491,-0.494425,-1.218394,100280.0000
1764076261569963326,2025-11-25 18:41:01.566,0.764606,2.071598,121.763657,0.033822,0.012542,0.986931,0.360011,0.225827,9.839852,-0.000242,0.133890,-0.051596,0.636811,-0.494330,-1.215103,100274.0000
1764076261669949844,2025-11-25 18:41:01.666,0.738002,1.167698,122.098419,0.002292,0.007706,0.982455,-0.361631,-0.042555,9.890676,-0.002023,0.161700,-0.075835,0.649873,-0.489840,-1.209103,100276.0000
1764076261770240659,2025-11-25 18:41:01.766,0.710285,0.302327,122.563637,-0.038188,0.002690,0.980461,-0.443789,-0.010939,9.652508,0.003316,0.132122,-0.104692,0.663402,-0.487747,-1.203555,100282.0000
1764076261870224307,2025-11-25 18:41:01.866,0.665580,-0.386461,123.180359,-0.063083,0.004822,0.980217,-0.729101,0.374818,9.843736,-0.008211,0.092291,-0.127310,0.677442,-0.479441,-1.198109,100280.0000
1764076261969938104,2025-11-25 18:41:01.966,0.606765,-0.685880,123.902077,-0.078724,-0.003254,0.976613,-0.203567,-0.253270,10.026566,-0.008291,0.013500,-0.124250,0.687145,-0.471175,-1.193562,100277.0000
1764076262069354789,2025-11-25 18:41:02.066,0.549242,-0.760572,124.678436,-0.074588,-0.002338,0.977695,-1.533044,1.221293,9.581981,-0.017346,0.016892,-0.166630,0.696304,-0.466845,-1.194245,100280.0000
1764076262169869992,2025-11-25 18:41:02.166,0.519187,-1.050593,125.624718,-0.081343,-0.012318,0.977677,-0.274022,-0.206263,10.095057,0.016002,0.099942,-0.177661,0.709829,-0.458633,-1.193124,100282.0000
1764076262269226770,2025-11-25 18:41:02.266,0.557804,-1.728952,126.994942,-0.113521,-0.009631,0.977569,-1.837003,-0.176345,9.470539,0.027840,0.124042,-0.290879,0.727283,-0.445007,-1.185402,100283.0000
1764076262370308344,2025-11-25 18:41:02.366,0.723301,-2.147334,128.486343,-0.148649,-0.018983,0.970387,-0.686135,0.583354,10.062922,0.045256,-0.009276,-0.248070,0.744731,-0.431869,-1.178153,100281.0000
1764076262470078900,2025-11-25 18:41:02.466,0.873586,-1.848731,129.866989,-0.126600,0.009550,0.973041,-1.456143,-0.273287,9.705876,0.018028,-0.094840,-0.237896,0.756806,-0.419436,-1.180447,100274.0000
1764076262569660622,2025-11-25 18:41:02.566,0.875858,-1.086511,131.168259,-0.108094,0.009072,0.964268,-0.398632,0.561208,9.003634,-0.001688,-0.159141,-0.206132,0.761606,-0.408601,-1.188870,100278.0000
1764076262670299270,2025-11-25 18:41:02.666,0.775102,-0.271390,132.596069,-0.068128,0.011958,0.967972,-1.957503,0.706562,9.576055,-0.035209,-0.136004,-0.266669,0.765472,-0.391571,-1.197855,100286.0000
1764076262770234733,2025-11-25 18:41:02.766,0.689439,0.219539,134.211838,-0.037807,-0.003486,0.969890,-0.025629,0.287760,9.820155,0.018233,-0.055611,-0.299777,0.773689,-0.373993,-1.204505,100274.0000
1764076262870224677,2025-11-25 18:41:02.866,0.772533,0.471677,135.945175,-0.025065,-0.011131,0.974972,0.858207,-1.426814,9.692685,0.025482,-0.041426,-0.327024,0.786774,-0.355305,-1.204983,100275.0000
1764076262970692436,2025-11-25 18:41:02.966,1.025926,0.536497,137.728363,-0.023039,-0.007189,0.982005,-0.354524,0.252679,9.968479,0.052335,-0.012457,-0.344361,0.798901,-0.338491,-1.203492,100282.0000
1764076263070125936,2025-11-25 18:41:03.066,1.299165,0.541977,139.493500,-0.013867,0.012830,0.987144,0.256560,0.277921,9.899570,0.036264,0.003114,-0.320415,0.812938,-0.321710,-1.203954,100279.0000
1764076263169474436,2025-11-25 18:41:03.166,1.407503,0.440868,141.356598,-0.006152,0.036067,0.989153,-0.022602,0.703058,9.846178,-0.004338,0.021112,-0.347135,0.826536,-0.303406,-1.200099,100284.0000
1764076263269670214,2025-11-25 18:41:03.266,1.287318,0.337115,143.407440,-0.010450,0.037651,0.983102,0.131505,0.353823,9.979959,-0.038129,0.004751,-0.381503,0.840612,-0.278037,-1.201175,100272.0000
1764076263370246455,2025-11-25 18:41:03.366,1.026839,0.359431,145.649460,-0.010639,0.022702,0.976654,-0.448729,-0.024572,9.665493,-0.043923,-0.016622,-0.408446,0.858516,-0.252233,-1.205203,100278.0000
1764076263470416195,2025-11-25 18:41:03.466,0.791889,0.486922,148.020493,-0.005564,0.006900,0.976627,-0.209399,0.013619,9.722391,-0.029004,-0.033507,-0.420847,0.868292,-0.219261,-1.207295,100278.0000
1764076263570757936,2025-11-25 18:41:03.566,0.688379,0.648145,150.389252,0.005130,-0.006955,0.974032,0.318412,-0.106134,9.775455,-0.009036,-0.039790,-0.413406,0.876591,-0.189212,-1.211728,100278.0000
1764076263670332769,2025-11-25 18:41:03.666,0.733061,0.759090,152.638702,0.014696,-0.012052,0.976457,0.203797,-0.237052,9.740714,0.013969,-0.021375,-0.390618,0.889737,-0.160462,-1.210916,100278.0000
1764076263769570732,2025-11-25 18:41:03.766,0.865997,0.722651,154.774353,0.020250,-0.000803,0.978068,0.227929,0.424408,9.810019,0.022450,0.013043,-0.377005,0.899461,-0.135641,-1.214327,100278.0000
1764076263870542510,2025-11-25 18:41:03.866,0.985054,0.549265,156.888641,0.015147,0.007432,0.978858,0.484610,0.000738,9.873167,0.013140,0.036640,-0.378499,0.907326,-0.110655,-1.209526,100280.0000
1764076263970757788,2025-11-25 18:41:03.966,1.034342,0.343493,159.006790,0.002658,0.009712,0.980466,-0.390889,0.236407,9.732581,0.006387,0.026510,-0.374287,0.916638,-0.081882,-1.206731,100280.0000
1764076264070475843,2025-11-25 18:41:04.066,1.021010,0.203732,161.102509,-0.007577,0.010491,0.981121,-0.470439,0.271204,9.750474,0.003741,0.009041,-0.361014,0.923987,-0.055577,-1.207241,100278.0000
1764076264169640028,2025-11-25 18:41:04.166,0.998134,0.099658,163.119141,-0.011628,0.009307,0.984640,-0.211099,0.011112,9.787923,0.000313,-0.006089,-0.344044,0.929915,-0.027805,-1.205825,100273.0000
1764076264269714121,2025-11-25 18:41:04.266,1.009885,0.109328,164.975769,-0.013615,0.005010,0.979417,0.086114,-0.267660,9.985506,0.013314,-0.033504,-0.308491,0.933886,-0.002481,-1.206751,100284.0000
1764076264369634880,2025-11-25 18:41:04.366,1.086570,0.281040,166.524780,-0.010890,0.002281,0.976966,-0.457697,-0.038223,9.610857,0.022124,-0.032253,-0.261308,0.931075,0.015617,-1.208913,100275.0000
1764076264470548065,2025-11-25 18:41:04.466,1.170886,0.523815,167.727829,-0.012038,0.010434,0.966229,-0.527253,0.716987,9.352950,0.007138,-0.078406,-0.194104,0.933061,0.031816,-1.211597,100284.0000
1764076264570347713,2025-11-25 18:41:04.566,1.206835,1.221649,168.600266,0.012929,0.016301,0.962176,0.248317,0.254628,9.662082,-0.012566,-0.176905,-0.138619,0.925330,0.042065,-1.222235,100280.0000
1764076264670464306,2025-11-25 18:41:04.666,1.149417,2.307527,169.175613,0.067129,0.016310,0.972583,1.530119,0.475549,9.894460,-0.015562,-0.188454,-0.079641,0.917112,0.052771,-1.233835,100280.0000
1764076264769487657,2025-11-25 18:41:04.766,1.002637,3.288798,169.490891,0.117585,0.015358,0.979789,1.240115,0.473295,9.611173,-0.025435,-0.129585,-0.038469,0.907414,0.059129,-1.247274,100279.0000
1764076264869578972,2025-11-25 18:41:04.866,0.855171,3.777557,169.544449,0.150642,0.005947,0.981657,1.261988,0.009185,9.510711,-0.012337,-0.033968,0.004479,0.903034,0.059923,-1.253964,100279.0000
1764076264970293991,2025-11-25 18:41:04.966,0.776342,3.614574,169.389206,0.159973,0.002707,0.984216,1.459070,0.036941,9.774055,0.004286,0.073685,0.033837,0.902570,0.060906,-1.252528,100278.0000
1764076265070017657,2025-11-25 18:41:05.066,0.777490,2.961793,169.107910,0.136536,0.005283,0.979352,1.130777,-0.047147,9.761242,0.013961,0.131344,0.044487,0.911283,0.055427,-1.242459,100280.0000
1764076265169288639,2025-11-25 18:41:05.166,0.828741,2.242738,168.744553,0.094151,0.007765,0.974496,0.974264,0.023615,9.696329,0.014265,0.112016,0.062466,0.916615,0.051783,-1.235258,100281.0000
1764076265269139157,2025-11-25 18:41:05.266,0.885490,1.922616,168.328812,0.058243,0.013233,0.967100,0.458715,0.100431,9.765231,0.009859,0.000874,0.063524,0.920485,0.047613,-1.229954,100275.0000
1764076265370656194,2025-11-25 18:41:05.366,0.912980,2.208494,167.944534,0.061534,0.015866,0.967954,1.408374,-0.102628,9.815775,0.008472,-0.095643,0.058157,0.915600,0.041269,-1.235082,100276.0000
1764076265470492361,2025-11-25 18:41:05.466,0.886783,2.927712,167.598114,0.092555,0.017139,0.971240,1.359565,0.097266,9.776009,-0.006982,-0.133551,0.052100,0.910713,0.039164,-1.243165,100274.0000
1764076265569747009,2025-11-25 18:41:05.566,0.834983,3.734741,167.244659,0.124635,0.015254,0.972596,1.681399,-0.065665,9.566468,-0.006419,-0.133573,0.062649,0.902418,0.033638,-1.254036,100274.0000
1764076265670618990,2025-11-25 18:41:05.666,0.795577,4.270407,166.911270,0.154690,0.014034,0.976724,1.186201,-0.156601,9.845563,-0.000089,-0.056124,0.047681,0.893674,0.030550,-1.262529,100282.0000
1764076265769877490,2025-11-25 18:41:05.766,0.793239,4.243129,166.624405,0.163864,0.013604,0.977067,1.897819,0.139986,9.713778,0.009224,0.062319,0.036429,0.894644,0.026804,-1.259115,100275.0000
1764076265869952786,2025-11-25 18:41:05.866,0.814202,3.605147,166.355774,0.134626,0.011076,0.975880,1.124804,0.317189,9.743172,0.012882,0.150538,0.038282,0.900445,0.021718,-1.252380,100284.0000
1764076265969265972,2025-11-25 18:41:05.966,0.859017,2.648986,166.071503,0.083554,0.012133,0.973149,0.191681,0.023708,9.652978,0.010789,0.168214,0.038641,0.911615,0.022510,-1.240035,100285.0000
1764076266070392212,2025-11-25 18:41:06.066,0.906565,1.836898,165.754776,0.028337,0.013286,0.976181,-0.075113,-0.231407,9.966004,0.013864,0.102200,0.053523,0.916974,0.017525,-1.228480,100276.0000
1764076266170481453,2025-11-25 18:41:06.166,0.953345,1.519576,165.382462,-0.002850,0.016689,0.976867,-0.366172,0.423260,9.700820,0.011841,0.011552,0.066546,0.922270,0.012843,-1.225115,100282.0000
1764076266270079638,2025-11-25 18:41:06.266,0.979256,1.721092,164.990814,-0.000261,0.023982,0.979447,-0.036684,0.314455,9.809288,0.005345,-0.070150,0.059372,0.919807,0.007496,-1.228850,100288.0000
1764076266370264712,2025-11-25 18:41:06.366,0.973897,2.184693,164.597107,0.027461,0.021370,0.980922,0.664077,0.061279,9.959582,0.005115,-0.086465,0.073681,0.913975,0.001189,-1.232039,100280.0000
1764076266470376379,2025-11-25 18:41:06.466,0.940971,2.588736,164.169571,0.057125,0.021434,0.978604,0.528951,0.207550,9.621891,-0.007337,-0.048750,0.075416,0.910553,-0.002739,-1.236263,100282.0000
1764076266570192397,2025-11-25 18:41:06.566,0.906763,2.713122,163.714676,0.072232,0.019301,0.977968,0.641857,0.183399,9.740138,-0.005117,0.012141,0.070352,0.908099,-0.007121,-1.239531,100277.0000
1764076266670836638,2025-11-25 18:41:06.666,0.897352,2.522559,163.259735,0.069637,0.018480,0.976157,0.875212,0.058705,9.816972,0.005691,0.049384,0.072129,0.910493,-0.011856,-1.238049,100280.0000
1764076266769923971,2025-11-25 18:41:06.766,0.906581,2.161060,162.803040,0.053062,0.019380,0.976363,-0.072243,0.116088,9.609265,0.004299,0.070944,0.070619,0.908587,-0.017942,-1.231668,100273.0000
1764076266869534101,2025-11-25 18:41:06.866,0.931323,1.846249,162.317825,0.030258,0.019491,0.977899,0.548817,-0.042239,9.884872,0.010979,0.040560,0.081534,0.914370,-0.023079,-1.227340,100284.0000
1764076266969962101,2025-11-25 18:41:06.966,0.959917,1.694025,161.794724,0.019311,0.023533,0.979324,-0.396700,0.425854,9.581982,0.011022,0.015019,0.094998,0.914340,-0.031169,-1.225772,100276.0000
1764076267070082008,2025-11-25 18:41:07.066,0.968545,1.737529,161.231277,0.020106,0.025017,0.978606,0.642564,0.421144,10.026445,0.001784,-0.026704,0.094421,0.914300,-0.037876,-1.226632,100277.0000
1764076267169686360,2025-11-25 18:41:07.166,0.964333,1.858388,160.632721,0.028911,0.025192,0.979994,0.630855,0.132569,9.933947,0.005275,-0.017766,0.105413,0.908496,-0.043167,-1.226947,100282.0000
1764076267269904378,2025-11-25 18:41:07.266,0.953139,1.966058,160.051147,0.034949,0.026218,0.977222,0.530579,-0.192331,9.823739,0.011091,-0.007402,0.098577,0.908443,-0.051318,-1.228267,100280.0000
1764076267370380656,2025-11-25 18:41:07.366,0.928345,2.036883,159.465988,0.034166,0.026694,0.973751,-0.261904,0.377304,9.388968,0.008487,-0.009680,0.100816,0.906951,-0.058053,-1.230068,100278.0000
1764076267470798360,2025-11-25 18:41:07.466,0.901546,2.067134,158.865875,0.040332,0.024640,0.976580,1.128592,0.530308,10.292220,0.006085,-0.000126,0.097359,0.905488,-0.064239,-1.228508,100275.0000
1764076267570644230,2025-11-25 18:41:07.566,0.878045,2.068101,158.252243,0.038926,0.022702,0.979252,0.625457,0.203996,9.983433,0.004109,-0.000010,0.095111,0.903043,-0.072838,-1.227859,100286.0000
1764076267670500433,2025-11-25 18:41:07.666,0.860831,2.047361,157.612976,0.037361,0.021645,0.979854,0.329480,0.319304,9.936225,0.012991,0.014144,0.104508,0.900137,-0.077617,-1.227262,100280.0000
1764076267770669341,2025-11-25 18:41:07.767,0.853715,2.026480,156.966034,0.031193,0.024369,0.975852,0.254904,0.231581,9.724051,0.003026,0.000822,0.113585,0.898158,-0.087667,-1.227561,100280.0000
1764076267869965674,2025-11-25 18:41:07.866,0.857325,2.047528,156.323135,0.028838,0.024146,0.976572,-0.050457,0.531224,9.510783,0.000139,-0.012158,0.109438,0.896665,-0.096760,-1.227882,100278.0000
1764076267970934304,2025-11-25 18:41:07.966,0.862941,2.124937,155.686615,0.033273,0.023287,0.978069,0.162362,-0.024754,9.988737,0.004875,-0.007157,0.092852,0.894212,-0.102554,-1.230165,100276.0000
1764076268070177174,2025-11-25 18:41:08.066,0.872776,2.231278,155.046204,0.034941,0.023295,0.976425,1.237130,0.117859,10.118725,0.006792,-0.012895,0.115893,0.892269,-0.109209,-1.228109,100274.0000
1764076268169723007,2025-11-25 18:41:08.166,0.885116,2.316972,154.394470,0.037997,0.024963,0.976797,0.619110,0.031848,9.500516,0.006485,-0.014146,0.097914,0.887379,-0.116508,-1.233223,100272.0000
1764076268269853989,2025-11-25 18:41:08.266,0.885545,2.346848,153.722992,0.041605,0.026484,0.979827,0.044085,0.589095,9.405320,0.001716,-0.003901,0.111178,0.883984,-0.125081,-1.231116,100275.0000
1764076268369757007,2025-11-25 18:41:08.366,0.872065,2.323704,153.057526,0.045710,0.027168,0.979699,0.416884,0.029674,10.135584,0.002916,0.008880,0.114425,0.883942,-0.134146,-1.230496,100281.0000
1764076268469340433,2025-11-25 18:41:08.466,0.851542,2.275841,152.418182,0.039699,0.026595,0.976897,0.416966,0.287013,9.944423,0.001190,0.011496,0.106864,0.881504,-0.142257,-1.229372,100284.0000
1764076268569995155,2025-11-25 18:41:08.566,0.824473,2.255271,151.790543,0.035864,0.024522,0.976448,0.619165,0.152508,9.603592,0.000347,0.012408,0.109343,0.879559,-0.147032,-1.228790,100278.0000
1764076268670307822,2025-11-25 18:41:08.666,0.796406,2.275047,151.180206,0.034379,0.022692,0.978104,0.869458,0.036530,9.814134,-0.004725,-0.007332,0.097142,0.876144,-0.155656,-1.229089,100276.0000
1764076268770396785,2025-11-25 18:41:08.766,0.784776,2.341676,150.557755,0.037501,0.021892,0.978387,1.032828,0.064531,9.778651,-0.004873,-0.011486,0.097592,0.874651,-0.163336,-1.230395,100282.0000
1764076268869880803,2025-11-25 18:41:08.866,0.780865,2.385469,149.918945,0.042513,0.022254,0.979467,0.175103,0.307202,9.659761,0.002507,-0.002934,0.106200,0.869315,-0.169600,-1.231666,100279.0000
1764076268970565896,2025-11-25 18:41:08.966,0.768302,2.381725,149.269882,0.044317,0.022371,0.979223,0.461466,0.057393,10.138433,0.007113,0.005146,0.105283,0.869763,-0.176285,-1.231570,100278.0000
1764076269070958192,2025-11-25 18:41:09.066,0.744287,2.329027,148.631454,0.044594,0.025314,0.977267,0.990916,0.534991,10.256356,0.005010,0.020739,0.100132,0.864450,-0.185791,-1.227976,100278.0000
1764076269169818025,2025-11-25 18:41:09.166,0.720947,2.250075,148.003540,0.039477,0.020180,0.977769,0.581220,-0.130158,9.638309,0.005880,0.016260,0.092537,0.862984,-0.191042,-1.227393,100282.0000
1764076269269829803,2025-11-25 18:41:09.266,0.707744,2.190032,147.366211,0.033140,0.017510,0.977331,-0.353365,-0.126023,9.365197,0.010652,0.020626,0.112334,0.861028,-0.198206,-1.226773,100282.0000
1764076269369856081,2025-11-25 18:41:09.366,0.719918,2.197382,146.729477,0.027002,0.021106,0.974248,0.737783,0.155336,10.084373,0.006863,-0.010128,0.116139,0.858567,-0.206845,-1.228050,100273.0000
1764076269469688395,2025-11-25 18:41:09.466,0.741915,2.252678,146.116226,0.032761,0.021981,0.978673,0.792132,0.062651,10.064237,0.008353,-0.017762,0.112203,0.851788,-0.211703,-1.230284,100278.0000
1764076269569906081,2025-11-25 18:41:09.566,0.760159,2.362129,145.515518,0.038269,0.020509,0.977867,0.283609,0.143740,9.945025,0.011671,-0.013770,0.103718,0.850794,-0.218862,-1.229679,100275.0000
1764076269672032729,2025-11-25 18:41:09.666,0.776726,2.456523,144.931381,0.043891,0.026760,0.978999,0.142196,0.600259,9.426083,0.009300,-0.011931,0.106375,0.845936,-0.226547,-1.230453,100280.0000
1764076269770345932,2025-11-25 18:41:09.766,0.773084,2.479733,144.375168,0.047973,0.024877,0.978898,0.522344,0.509479,9.812626,0.002205,0.001999,0.090128,0.842546,-0.231807,-1.229841,100280.0000
1764076269870361043,2025-11-25 18:41:09.866,0.756872,2.417112,143.848206,0.044999,0.021450,0.978322,0.328582,0.234444,9.785751,-0.002794,0.012585,0.090522,0.840608,-0.236094,-1.228784,100276.0000
1764076269970009784,2025-11-25 18:41:09.966,0.742775,2.327296,143.353836,0.039047,0.020992,0.977088,0.460350,-0.186943,9.756046,-0.000964,0.013077,0.076949,0.838650,-0.242790,-1.228653,100275.0000
1764076270070348247,2025-11-25 18:41:10.066,0.737527,2.252939,142.875900,0.034879,0.020470,0.978036,0.182041,0.146961,9.870635,0.000980,0.009727,0.075891,0.837185,-0.248509,-1.227581,100278.0000
1764076270169626913,2025-11-25 18:41:10.166,0.745028,2.235046,142.407303,0.030887,0.018781,0.976052,0.367036,0.159041,9.802382,0.007550,-0.002092,0.074091,0.835725,-0.251859,-1.227509,100286.0000
1764076270269349673,2025-11-25 18:41:10.266,0.763057,2.279050,141.960373,0.030158,0.018436,0.977530,0.348492,-0.036947,9.910350,0.011125,-0.009657,0.074493,0.830398,-0.258102,-1.227816,100281.0000
1764076270370419469,2025-11-25 18:41:10.366,0.772859,2.367407,141.526077,0.035876,0.021652,0.979012,0.373773,-0.169198,9.952492,0.008397,-0.017116,0.068779,0.829874,-0.264345,-1.229158,100282.0000
1764076270470050450,2025-11-25 18:41:10.466,0.763329,2.459775,141.111206,0.041500,0.023064,0.978144,0.452201,0.397152,9.757445,0.003670,-0.006629,0.065320,0.824558,-0.268200,-1.229503,100275.0000
1764076270569988395,2025-11-25 18:41:10.566,0.742342,2.496779,140.719498,0.044567,0.020752,0.977201,0.434631,0.474509,9.731071,-0.006202,-0.004230,0.056081,0.820229,-0.268687,-1.228950,100281.0000
1764076270670389024,2025-11-25 18:41:10.666,0.723954,2.485116,140.344604,0.042779,0.018087,0.976939,0.117852,0.059580,9.759422,-0.004049,0.004024,0.054827,0.820195,-0.273962,-1.229832,100284.0000
1764076270770224117,2025-11-25 18:41:10.766,0.711063,2.432979,139.979431,0.043047,0.016177,0.978315,0.837694,0.411672,9.757901,0.003151,0.006502,0.067415,0.818256,-0.276837,-1.229760,100277.0000
1764076270869921283,2025-11-25 18:41:10.866,0.704208,2.378299,139.644196,0.041843,0.020543,0.978324,0.517139,0.277998,9.913109,-0.004469,0.014007,0.042304,0.817780,-0.282012,-1.225821,100279.0000
1764076270970508506,2025-11-25 18:41:10.966,0.704229,2.359450,139.337799,0.035408,0.013155,0.978438,-0.153544,-0.531382,9.402343,-0.000468,0.002836,0.053866,0.819196,-0.282077,-1.229212,100279.0000
1764076271070105228,2025-11-25 18:41:11.066,0.712957,2.382845,139.040054,0.036944,0.018592,0.977147,0.032449,0.621739,9.645742,0.004472,-0.006506,0.040947,0.813877,-0.289713,-1.227573,100282.0000
1764076271169377357,2025-11-25 18:41:11.166,0.710768,2.393460,138.768829,0.039566,0.020372,0.978623,0.433347,0.042290,9.588388,-0.001523,-0.000404,0.025621,0.811958,-0.290179,-1.226574,100272.0000
1764076271269711709,2025-11-25 18:41:11.266,0.698834,2.365940,138.531219,0.040093,0.016842,0.979108,0.344779,0.547081,9.927750,0.004594,0.007373,0.034535,0.809049,-0.290721,-1.228931,100272.0000
1764076271370123024,2025-11-25 18:41:11.366,0.687320,2.308914,138.314865,0.037455,0.013585,0.977579,0.591087,0.153537,9.613041,0.005373,0.009653,0.033752,0.810008,-0.294497,-1.226961,100281.0000
1764076271470876894,2025-11-25 18:41:11.466,0.690545,2.249178,138.105682,0.034382,0.013834,0.977687,0.508949,0.317903,9.959776,0.006109,-0.002183,0.029461,0.810001,-0.295930,-1.226939,100278.0000
1764076271570162635,2025-11-25 18:41:11.566,0.703511,2.226398,137.923843,0.036794,0.016529,0.978380,0.441939,0.225483,9.864651,0.000378,0.005277,0.026564,0.810001,-0.297342,-1.225954,100281.0000
1764076271670157024,2025-11-25 18:41:11.666,0.710390,2.224901,137.766754,0.035461,0.014083,0.976240,0.281674,0.033155,9.673054,0.006650,0.001991,0.018877,0.807581,-0.300219,-1.225875,100275.0000
1764076271769784079,2025-11-25 18:41:11.766,0.711520,2.229056,137.627930,0.034363,0.014200,0.977582,0.274754,-0.034196,9.523927,0.001591,-0.001304,0.020446,0.809995,-0.300188,-1.224948,100276.0000
1764076271869947690,2025-11-25 18:41:11.866,0.702407,2.219421,137.508804,0.035533,0.016571,0.978902,0.459292,0.149818,9.769159,-0.005535,0.001679,0.013391,0.808058,-0.301172,-1.225867,100283.0000
1764076271971332116,2025-11-25 18:41:11.966,0.681080,2.229549,137.411316,0.034631,0.013422,0.978342,0.545098,0.066053,10.055658,0.001667,-0.004765,0.005175,0.807074,-0.303118,-1.227268,100285.0000
1764076272070700116,2025-11-25 18:41:12.066,0.665165,2.243361,137.320190,0.036522,0.010773,0.978391,0.189239,0.109126,9.698081,0.006942,-0.001189,0.012401,0.805164,-0.301673,-1.226299,100278.0000
1764076272169708227,2025-11-25 18:41:12.166,0.655180,2.246713,137.241776,0.035738,0.011395,0.978634,0.358158,0.186488,9.655351,-0.000451,0.002376,0.005095,0.808071,-0.300664,-1.224430,100283.0000
1764076272269692209,2025-11-25 18:41:12.266,0.662250,2.236801,137.181854,0.035493,0.010803,0.977997,0.069131,0.115555,9.648577,0.002335,-0.000198,-0.003239,0.805169,-0.303076,-1.224833,100273.0000
1764076272370025320,2025-11-25 18:41:12.366,0.680091,2.237623,137.142258,0.033700,0.010014,0.977340,0.040877,0.035597,9.591935,0.007603,-0.002643,0.002144,0.804681,-0.302153,-1.226284,100280.0000
1764076272469763153,2025-11-25 18:41:12.466,0.692613,2.246261,137.123611,0.036658,0.012582,0.978737,0.100510,-0.254816,9.593353,0.007251,0.000260,-0.011783,0.807099,-0.301167,-1.225372,100276.0000
1764076272569632764,2025-11-25 18:41:12.566,0.695127,2.256716,137.126083,0.036245,0.012246,0.978035,0.321966,0.005645,9.832544,0.006344,-0.001905,-0.013261,0.806126,-0.302614,-1.225817,100278.0000
