Timestamp,Time,Roll,Pitch,Yaw,Magnetic_Field_X,Magnetic_Field_Y,Magnetic_Field_Z,Angular_Rate_X,Angular_Rate_Y,Angular_Rate_Z,Acceleration_X,Acceleration_Y,Acceleration_Z
1779272919065924774,2026-05-20 15:58:38.760,-2.101000,1.438000,297.668000,-0.289300,0.138600,0.179500,0.002472,-0.007233,0.012602,0.228000,0.360000,-10.163000
1779272919066215533,2026-05-20 15:58:38.814,-2.098000,1.429000,297.684000,-0.289300,0.138600,0.178400,0.002402,-0.005821,0.011847,0.242000,0.382000,-10.151000
1779272919066561477,2026-05-20 15:58:38.837,-2.094000,1.418000,297.705000,-0.287400,0.140500,0.176400,0.002877,-0.008008,0.014687,0.233000,0.353000,-10.165000
1779272919066745533,2026-05-20 15:58:38.850,-2.091000,1.407000,297.727000,-0.289300,0.142500,0.180600,0.002232,-0.006509,0.014497,0.208000,0.397000,-10.141000
1779272919066986681,2026-05-20 15:58:38.859,-2.088000,1.397000,297.745000,-0.287400,0.141700,0.229500,0.002222,-0.006938,0.013344,0.217000,0.374000,-10.186000
1779272919067245144,2026-05-20 15:58:38.869,-2.083000,1.387000,297.765000,-0.289200,0.144500,0.180600,0.001700,-0.007604,0.014526,0.202000,0.397000,-10.116000
1779272919067478477,2026-05-20 15:58:38.879,-2.080000,1.378000,297.786000,-0.290100,0.146500,0.179400,0.000937,-0.006631,0.014984,0.245000,0.374000,-10.118000
1779272919067530811,2026-05-20 15:58:38.891,-2.078000,1.368000,297.807000,-0.289300,0.138600,0.181700,0.000366,-0.005697,0.016499,0.223000,0.373000,-10.139000
1779272919068166959,2026-05-20 15:58:38.910,-2.078000,1.362000,297.828000,-0.287400,0.144500,0.180700,0.000174,-0.003678,0.015289,0.221000,0.352000,-10.158000
1779272919068364089,2026-05-20 15:58:38.922,-2.077000,1.356000,297.853000,-0.287400,0.141500,0.183900,-0.001381,-0.003885,0.018376,0.235000,0.321000,-10.171000
1779272919069775459,2026-05-20 15:58:38.938,-2.078000,1.352000,297.875000,-0.287400,0.140500,0.183900,-0.002907,-0.002312,0.015716,0.193000,0.375000,-10.139000
1779272919086955663,2026-05-20 15:58:38.951,-2.080000,1.350000,297.899000,-0.287400,0.141500,0.181800,-0.001877,-0.000838,0.015758,0.218000,0.382000,-10.138000
1779272919088161200,2026-05-20 15:58:38.960,-2.082000,1.349000,297.921000,-0.286500,0.140500,0.182900,-0.003597,-0.000165,0.017186,0.220000,0.333000,-10.156000
1779272919088272996,2026-05-20 15:58:38.967,-2.086000,1.352000,297.945000,-0.289300,0.139600,0.183900,-0.004371,0.001328,0.018169,0.253000,0.385000,-10.140000
1779272919088312663,2026-05-20 15:58:38.974,-2.091000,1.355000,297.968000,-0.283800,0.138500,0.176600,-0.004870,0.002074,0.017505,0.247000,0.364000,-10.144000
1779272919088350385,2026-05-20 15:58:38.981,-2.097000,1.361000,297.994000,-0.287300,0.148400,0.180600,-0.003246,0.004307,0.016940,0.245000,0.357000,-10.176000
1779272919088386607,2026-05-20 15:58:38.988,-2.101000,1.367000,298.022000,-0.287400,0.142500,0.183900,-0.003746,0.003607,0.019013,0.237000,0.372000,-10.149000
1779272919088421792,2026-05-20 15:58:38.995,-2.105000,1.374000,298.049000,-0.288400,0.137600,0.177400,-0.002559,0.004673,0.019331,0.248000,0.364000,-10.153000
1779272919088456403,2026-05-20 15:58:39.002,-2.109000,1.382000,298.073000,-0.286500,0.142500,0.184000,-0.002423,0.005383,0.018528,0.273000,0.366000,-10.137000
1779272919088489700,2026-05-20 15:58:39.027,-2.112000,1.390000,298.102000,-0.288400,0.140600,0.181700,-0.002450,0.005111,0.019735,0.249000,0.375000,-10.171000
1779272919088526089,2026-05-20 15:58:39.052,-2.114000,1.398000,298.131000,-0.288400,0.137600,0.181800,-0.000602,0.005866,0.020355,0.264000,0.405000,-10.133000
1779272919166060051,2026-05-20 15:58:39.148,-2.115000,1.406000,298.159000,-0.287500,0.138600,0.181800,-0.000426,0.006321,0.018907,0.234000,0.379000,-10.133000
1779272919187744848,2026-05-20 15:58:39.175,-2.113000,1.415000,298.187000,-0.287300,0.146400,0.183900,-0.000490,0.005252,0.020245,0.264000,0.338000,-10.204000
1779272919230682014,2026-05-20 15:58:39.228,-2.111000,1.422000,298.216000,-0.285600,0.140500,0.180800,0.000184,0.005329,0.020332,0.266000,0.356000,-10.156000
1779272919311763663,2026-05-20 15:58:39.310,-2.103000,1.441000,298.268000,-0.288300,0.142600,0.191500,0.003372,0.005263,0.017642,0.294000,0.388000,-10.135000
1779272919321529422,2026-05-20 15:58:39.319,-2.096000,1.451000,298.294000,-0.284600,0.142400,0.179700,0.003644,0.006166,0.018437,0.283000,0.378000,-10.166000
1779272919348483033,2026-05-20 15:58:39.339,-2.091000,1.459000,298.320000,-0.288300,0.145500,0.181700,0.002853,0.004578,0.017628,0.252000,0.389000,-10.141000
1779272919376620570,2026-05-20 15:58:39.367,-2.085000,1.468000,298.348000,-0.288300,0.143500,0.183900,0.004470,0.004619,0.017561,0.278000,0.352000,-10.151000
1779272919383550051,2026-05-20 15:58:39.378,-2.077000,1.476000,298.372000,-0.287400,0.141500,0.179600,0.004635,0.003502,0.016934,0.276000,0.336000,-10.193000
1779272919394078848,2026-05-20 15:58:39.389,-2.069000,1.483000,298.396000,-0.288300,0.144500,0.180600,0.004103,0.002421,0.016223,0.266000,0.386000,-10.162000
1779272919400659903,2026-05-20 15:58:39.398,-2.062000,1.488000,298.419000,-0.287400,0.142500,0.180700,0.004742,0.003000,0.016049,0.282000,0.355000,-10.183000
1779272919414190199,2026-05-20 15:58:39.410,-2.055000,1.492000,298.443000,-0.288200,0.147400,0.180600,0.004901,0.001601,0.016100,0.285000,0.338000,-10.161000
1779272919420351551,2026-05-20 15:58:39.419,-2.049000,1.497000,298.466000,-0.289200,0.144500,0.181600,0.003306,0.001106,0.017695,0.300000,0.359000,-10.151000
1779272919427983737,2026-05-20 15:58:39.426,-2.046000,1.499000,298.492000,-0.288300,0.144500,0.180600,0.001950,0.000593,0.016297,0.291000,0.352000,-10.162000
1779272919435223496,2026-05-20 15:58:39.434,-2.042000,1.499000,298.513000,-0.286400,0.147400,0.182900,0.002586,-0.001662,0.014300,0.276000,0.353000,-10.192000
1779272919454229199,2026-05-20 15:58:39.453,-2.039000,1.499000,298.536000,-0.287300,0.146400,0.179600,-0.000952,-0.001125,0.015076,0.302000,0.372000,-10.123000
1779272919478947699,2026-05-20 15:58:39.477,-2.039000,1.496000,298.560000,-0.287400,0.141500,0.179600,-0.000797,-0.001639,0.015702,0.296000,0.347000,-10.176000
1779272919503578422,2026-05-20 15:58:39.502,-2.041000,1.494000,298.580000,-0.285500,0.144400,0.180800,-0.002414,-0.003580,0.014508,0.297000,0.356000,-10.180000
1779272919528634440,2026-05-20 15:58:39.527,-2.045000,1.491000,298.602000,-0.286400,0.146400,0.181800,-0.002499,-0.003918,0.015556,0.257000,0.340000,-10.178000
1779272919557404570,2026-05-20 15:58:39.556,-2.049000,1.485000,298.627000,-0.285500,0.145400,0.181800,-0.004280,-0.004894,0.016248,0.288000,0.377000,-10.156000
1779272919578607810,2026-05-20 15:58:39.577,-2.056000,1.479000,298.651000,-0.284600,0.144400,0.180800,-0.004768,-0.004775,0.015314,0.243000,0.366000,-10.177000
1779272919603645903,2026-05-20 15:58:39.602,-2.064000,1.474000,298.672000,-0.286500,0.141500,0.181800,-0.006446,-0.005347,0.017245,0.295000,0.355000,-10.172000
1779272919628937218,2026-05-20 15:58:39.627,-2.073000,1.468000,298.695000,-0.286400,0.143500,0.179600,-0.006991,-0.005827,0.015676,0.258000,0.357000,-10.166000
1779272919654100847,2026-05-20 15:58:39.652,-2.082000,1.459000,298.718000,-0.287300,0.147400,0.179600,-0.005742,-0.007895,0.016164,0.265000,0.377000,-10.153000
1779272919678754533,2026-05-20 15:58:39.677,-2.092000,1.451000,298.743000,-0.286200,0.154300,0.180600,-0.007210,-0.006786,0.014665,0.275000,0.374000,-10.146000
1779272919703694033,2026-05-20 15:58:39.702,-2.100000,1.444000,298.767000,-0.286200,0.155300,0.179500,-0.005803,-0.006888,0.015094,0.262000,0.388000,-10.164000
1779272919728640292,2026-05-20 15:58:39.727,-2.108000,1.438000,298.789000,-0.283600,0.145400,0.185200,-0.005766,-0.005163,0.014735,0.280000,0.341000,-10.180000
1779272919754095588,2026-05-20 15:58:39.753,-2.115000,1.430000,298.808000,-0.286400,0.146400,0.179600,-0.004589,-0.005951,0.013695,0.273000,0.378000,-10.102000
1779272919778637403,2026-05-20 15:58:39.777,-2.122000,1.426000,298.824000,-0.284500,0.147400,0.179700,-0.002998,-0.002196,0.012712,0.220000,0.421000,-10.199000
1779272919803541162,2026-05-20 15:58:39.802,-2.128000,1.422000,298.837000,-0.283600,0.147300,0.176500,-0.003229,-0.003194,0.006909,0.243000,0.454000,-10.208000
1779272919828483125,2026-05-20 15:58:39.827,-2.131000,1.414000,298.846000,-0.287300,0.147400,0.177400,-0.000431,-0.005077,0.010157,0.250000,0.368000,-10.160000
1779272919853659440,2026-05-20 15:58:39.852,-2.130000,1.410000,298.858000,-0.286400,0.147400,0.180700,0.000618,-0.000473,0.008782,0.239000,0.357000,-10.176000
1779272919878692107,2026-05-20 15:58:39.877,-2.130000,1.412000,298.869000,-0.284500,0.147400,0.180800,0.001772,0.002915,0.009118,0.234000,0.351000,-10.179000
1779272919903540681,2026-05-20 15:58:39.902,-2.129000,1.415000,298.881000,-0.288200,0.146500,0.182800,0.002111,0.002126,0.006236,0.273000,0.424000,-10.154000
1779272919928474162,2026-05-20 15:58:39.927,-2.123000,1.417000,298.890000,-0.285400,0.147400,0.181800,0.003506,0.000949,0.008658,0.251000,0.430000,-10.159000
1779272919953470995,2026-05-20 15:58:39.952,-2.115000,1.421000,298.899000,-0.286200,0.152300,0.182800,0.006463,0.002022,0.007913,0.237000,0.373000,-10.142000
1779272919978589310,2026-05-20 15:58:39.977,-2.105000,1.429000,298.906000,-0.285500,0.144400,0.182900,0.006538,0.007587,0.008166,0.241000,0.398000,-10.116000
1779272920003509718,2026-05-20 15:58:40.002,-2.098000,1.439000,298.914000,-0.285400,0.146400,0.179700,0.007189,0.005525,0.005299,0.248000,0.402000,-10.146000
1779272920028527569,2026-05-20 15:58:40.027,-2.090000,1.448000,298.923000,-0.285600,0.141500,0.181900,0.005517,0.003691,0.006159,0.284000,0.378000,-10.163000
1779272920053452162,2026-05-20 15:58:40.052,-2.080000,1.454000,298.926000,-0.285400,0.147400,0.182900,0.006928,0.006246,0.006207,0.246000,0.383000,-10.114000
1779272920078692181,2026-05-20 15:58:40.077,-2.070000,1.465000,298.935000,-0.286400,0.144400,0.179600,0.006798,0.006847,0.006022,0.273000,0.346000,-10.131000
1779272920103684625,2026-05-20 15:58:40.102,-2.062000,1.477000,298.939000,-0.287200,0.149400,0.186000,0.004712,0.006396,0.005164,0.300000,0.353000,-10.100000
1779272920128445051,2026-05-20 15:58:40.127,-2.055000,1.488000,298.945000,-0.287300,0.145500,0.181700,0.005478,0.005852,0.005180,0.269000,0.384000,-10.157000
1779272920191961829,2026-05-20 15:58:40.190,-2.042000,1.510000,298.954000,-0.284600,0.144400,0.183000,0.004258,0.007978,0.003004,0.309000,0.344000,-10.189000
1779272920203604106,2026-05-20 15:58:40.202,-2.038000,1.522000,298.959000,-0.285500,0.142500,0.181900,0.001482,0.007378,0.003347,0.292000,0.410000,-10.178000
1779272920228470588,2026-05-20 15:58:40.227,-2.038000,1.534000,298.963000,-0.286300,0.150400,0.180700,0.000146,0.006189,0.003860,0.327000,0.347000,-10.140000
1779272920253469977,2026-05-20 15:58:40.252,-2.036000,1.544000,298.971000,-0.285400,0.148400,0.182900,-0.001137,0.004519,0.003795,0.284000,0.319000,-10.173000
1779272920278555755,2026-05-20 15:58:40.277,-2.037000,1.552000,298.974000,-0.286200,0.152300,0.183900,-0.000999,0.003020,0.001622,0.291000,0.354000,-10.157000
1779272920303658532,2026-05-20 15:58:40.302,-2.039000,1.560000,298.980000,-0.286400,0.144400,0.179600,-0.003299,0.002582,0.002754,0.318000,0.346000,-10.172000
1779272920328441440,2026-05-20 15:58:40.327,-2.045000,1.565000,298.982000,-0.284500,0.145400,0.181900,-0.004388,0.001292,0.001313,0.303000,0.366000,-10.132000
1779272920353386921,2026-05-20 15:58:40.352,-2.050000,1.568000,298.982000,-0.285400,0.147400,0.182900,-0.004606,0.000953,0.000715,0.276000,0.349000,-10.176000
1779272920378511217,2026-05-20 15:58:40.377,-2.056000,1.571000,298.981000,-0.286300,0.149400,0.181800,-0.005434,-0.000015,0.001239,0.320000,0.353000,-10.136000
1779272920403453977,2026-05-20 15:58:40.402,-2.064000,1.571000,298.981000,-0.286200,0.152300,0.180600,-0.005709,-0.001258,-0.000742,0.309000,0.358000,-10.175000
1779272920428383217,2026-05-20 15:58:40.427,-2.074000,1.569000,298.979000,-0.283500,0.149300,0.183000,-0.006875,-0.003140,0.000021,0.292000,0.384000,-10.183000
1779272920453485106,2026-05-20 15:58:40.452,-2.085000,1.564000,298.979000,-0.285200,0.157200,0.180700,-0.006458,-0.005480,-0.002043,0.310000,0.381000,-10.182000
1779272920478559866,2026-05-20 15:58:40.477,-2.093000,1.558000,298.975000,-0.286300,0.149400,0.183900,-0.006183,-0.005133,-0.002966,0.260000,0.348000,-10.163000
1779272920503450458,2026-05-20 15:58:40.502,-2.100000,1.555000,298.969000,-0.283600,0.146400,0.177600,-0.004507,-0.004285,-0.002680,0.297000,0.390000,-10.122000
1779272920528412421,2026-05-20 15:58:40.527,-2.108000,1.548000,298.965000,-0.287200,0.149400,0.176300,-0.004585,-0.006259,-0.002863,0.308000,0.349000,-10.186000
1779272920553512736,2026-05-20 15:58:40.552,-2.114000,1.540000,298.961000,-0.283500,0.151300,0.180800,-0.003809,-0.006848,-0.004674,0.279000,0.398000,-10.146000
1779272920578475551,2026-05-20 15:58:40.577,-2.118000,1.535000,298.956000,-0.283600,0.147400,0.183000,-0.002508,-0.004780,-0.005440,0.300000,0.378000,-10.175000
1779272920603564069,2026-05-20 15:58:40.602,-2.121000,1.529000,298.948000,-0.286300,0.150400,0.181700,-0.000501,-0.004192,-0.003872,0.258000,0.399000,-10.206000
1779272920633007810,2026-05-20 15:58:40.631,-2.122000,1.523000,298.943000,-0.287400,0.144500,0.177400,-0.000971,-0.005306,-0.005015,0.270000,0.377000,-10.116000
1779272920654138532,2026-05-20 15:58:40.653,-2.121000,1.514000,298.932000,-0.284400,0.151300,0.180800,-0.000033,-0.006928,-0.006563,0.280000,0.346000,-10.158000
1779272920678464717,2026-05-20 15:58:40.677,-2.119000,1.507000,298.926000,-0.286400,0.145400,0.184000,0.001651,-0.004017,-0.007539,0.274000,0.400000,-10.132000
1779272920703952143,2026-05-20 15:58:40.702,-2.117000,1.505000,298.917000,-0.284500,0.147400,0.181900,0.003264,-0.000582,-0.006403,0.275000,0.453000,-10.157000
1779272920728392773,2026-05-20 15:58:40.727,-2.114000,1.501000,298.904000,-0.286400,0.146400,0.178500,0.002810,-0.002987,-0.006497,0.286000,0.379000,-10.174000
1779272920753374495,2026-05-20 15:58:40.752,-2.108000,1.496000,298.895000,-0.285500,0.144400,0.175300,0.003848,-0.004486,-0.005947,0.247000,0.370000,-10.156000
1779272920778391662,2026-05-20 15:58:40.777,-2.103000,1.492000,298.885000,-0.289200,0.143500,0.182700,0.003274,-0.001285,-0.007468,0.257000,0.370000,-10.119000
1779272920803507273,2026-05-20 15:58:40.802,-2.098000,1.490000,298.876000,-0.286300,0.148400,0.178500,0.003952,-0.000797,-0.006680,0.297000,0.372000,-10.126000
1779272920828366125,2026-05-20 15:58:40.827,-2.091000,1.491000,298.870000,-0.284500,0.147400,0.182900,0.004401,-0.001152,-0.007878,0.291000,0.388000,-10.147000
1779272920853353013,2026-05-20 15:58:40.852,-2.086000,1.494000,298.857000,-0.285400,0.147400,0.176400,0.004437,0.000686,-0.008731,0.273000,0.383000,-10.138000
1779272920878387550,2026-05-20 15:58:40.877,-2.083000,1.500000,298.838000,-0.286400,0.145400,0.180700,0.003459,0.008500,-0.011210,0.251000,0.346000,-10.148000
1779272920903361976,2026-05-20 15:58:40.902,-2.078000,1.514000,298.817000,-0.287300,0.145500,0.180700,0.004478,0.012002,-0.013436,0.253000,0.401000,-10.109000
1779272920928302421,2026-05-20 15:58:40.927,-2.075000,1.532000,298.799000,-0.286300,0.151300,0.179600,0.001530,0.011386,-0.012956,0.315000,0.362000,-10.143000
1779272920953287773,2026-05-20 15:58:40.952,-2.072000,1.547000,298.779000,-0.288000,0.156300,0.178400,0.001100,0.009147,-0.012774,0.287000,0.373000,-10.168000
1779272920978384013,2026-05-20 15:58:40.977,-2.070000,1.563000,298.756000,-0.286400,0.145400,0.181800,0.002393,0.013545,-0.015796,0.272000,0.363000,-10.109000
1779272921003446476,2026-05-20 15:58:41.002,-2.069000,1.587000,298.732000,-0.288300,0.145500,0.181700,-0.000431,0.018171,-0.015321,0.286000,0.329000,-10.107000
1779272921028340013,2026-05-20 15:58:41.027,-2.071000,1.614000,298.708000,-0.286400,0.147400,0.179600,-0.002217,0.017300,-0.016962,0.367000,0.365000,-10.168000
1779272921053337810,2026-05-20 15:58:41.052,-2.074000,1.638000,298.681000,-0.287400,0.141500,0.178500,-0.000221,0.014058,-0.018252,0.339000,0.346000,-10.175000
1779272921078396624,2026-05-20 15:58:41.077,-2.076000,1.658000,298.651000,-0.285500,0.144400,0.179700,-0.000444,0.012141,-0.018050,0.334000,0.350000,-10.131000
1779272921103460865,2026-05-20 15:58:41.102,-2.077000,1.677000,298.622000,-0.284500,0.148400,0.181900,-0.001957,0.011959,-0.019259,0.335000,0.391000,-10.116000
1779272921128319180,2026-05-20 15:58:41.127,-2.082000,1.697000,298.592000,-0.287400,0.144500,0.179600,-0.002470,0.013260,-0.020426,0.334000,0.378000,-10.133000
1779272921191550717,2026-05-20 15:58:41.190,-2.090000,1.722000,298.531000,-0.287300,0.148400,0.180600,-0.003312,0.003513,-0.020314,0.333000,0.378000,-10.172000
1779272921203401439,2026-05-20 15:58:41.202,-2.093000,1.728000,298.500000,-0.287400,0.144500,0.177400,-0.000982,0.002899,-0.022473,0.362000,0.394000,-10.141000
1779272921228387810,2026-05-20 15:58:41.227,-2.098000,1.731000,298.467000,-0.287300,0.145400,0.178500,-0.000179,0.001779,-0.025065,0.343000,0.379000,-10.162000
1779272921253290198,2026-05-20 15:58:41.252,-2.101000,1.731000,298.432000,-0.287300,0.145500,0.182800,-0.002098,-0.003448,-0.024306,0.346000,0.389000,-10.206000
1779272921278289235,2026-05-20 15:58:41.277,-2.104000,1.724000,298.399000,-0.291100,0.144500,0.177200,-0.000872,-0.006670,-0.025424,0.354000,0.367000,-10.161000
1779272921303407680,2026-05-20 15:58:41.302,-2.106000,1.712000,298.364000,-0.286300,0.151300,0.183900,0.001035,-0.007588,-0.028171,0.316000,0.390000,-10.107000
1779272921329271643,2026-05-20 15:58:41.328,-2.104000,1.701000,298.324000,-0.288300,0.143500,0.183900,0.002410,-0.007892,-0.028894,0.303000,0.362000,-10.183000
1779272921353236346,2026-05-20 15:58:41.352,-2.104000,1.687000,298.284000,-0.286500,0.141500,0.181800,0.000289,-0.011995,-0.027213,0.357000,0.398000,-10.158000
1779272921378340235,2026-05-20 15:58:41.377,-2.105000,1.669000,298.247000,-0.289300,0.140600,0.179500,0.001814,-0.014068,-0.027340,0.326000,0.387000,-10.133000
1779272921403274698,2026-05-20 15:58:41.402,-2.101000,1.646000,298.207000,-0.287400,0.141500,0.181800,0.003936,-0.016482,-0.027245,0.264000,0.346000,-10.170000
1779272921428263958,2026-05-20 15:58:41.427,-2.096000,1.620000,298.170000,-0.287500,0.136600,0.181800,0.002450,-0.018249,-0.027701,0.323000,0.355000,-10.195000
1779272921453275495,2026-05-20 15:58:41.452,-2.094000,1.592000,298.131000,-0.288400,0.140600,0.180600,0.003052,-0.017734,-0.026697,0.285000,0.431000,-10.195000
1779272921478472550,2026-05-20 15:58:41.477,-2.092000,1.561000,298.090000,-0.288300,0.144500,0.183900,0.003002,-0.019476,-0.028319,0.260000,0.384000,-10.139000
1779272921503375606,2026-05-20 15:58:41.502,-2.089000,1.529000,298.052000,-0.287500,0.139600,0.180700,0.001562,-0.022647,-0.026839,0.273000,0.327000,-10.144000
1779272921528270569,2026-05-20 15:58:41.527,-2.087000,1.496000,298.016000,-0.287400,0.141500,0.183900,0.001894,-0.020726,-0.025957,0.250000,0.371000,-10.171000
1779272921553233198,2026-05-20 15:58:41.552,-2.086000,1.466000,297.982000,-0.288400,0.141500,0.180600,0.001156,-0.017849,-0.026556,0.190000,0.373000,-10.109000
1779272921578221383,2026-05-20 15:58:41.577,-2.085000,1.438000,297.943000,-0.287400,0.143500,0.185000,0.000556,-0.018298,-0.025173,0.240000,0.355000,-10.177000
1779272921603236291,2026-05-20 15:58:41.602,-2.085000,1.411000,297.907000,-0.289300,0.141600,0.182800,-0.000054,-0.014521,-0.025488,0.193000,0.393000,-10.145000
1779272921628254494,2026-05-20 15:58:41.627,-2.086000,1.389000,297.868000,-0.288300,0.145500,0.181700,-0.000033,-0.011648,-0.026183,0.173000,0.339000,-10.165000
1779272921653185846,2026-05-20 15:58:41.652,-2.088000,1.372000,297.829000,-0.287400,0.142500,0.180700,-0.001205,-0.008150,-0.025558,0.210000,0.348000,-10.131000
1779272921678202328,2026-05-20 15:58:41.677,-2.091000,1.358000,297.790000,-0.288300,0.142500,0.178500,-0.003000,-0.006742,-0.027262,0.190000,0.388000,-10.193000
1779272921703254809,2026-05-20 15:58:41.702,-2.096000,1.349000,297.754000,-0.288400,0.140500,0.178500,-0.002964,-0.003201,-0.026499,0.201000,0.408000,-10.110000
1779272921728355865,2026-05-20 15:58:41.727,-2.101000,1.345000,297.718000,-0.288400,0.139600,0.183900,-0.003300,0.000514,-0.027125,0.183000,0.376000,-10.171000
1779272921753279643,2026-05-20 15:58:41.752,-2.105000,1.347000,297.682000,-0.287500,0.138600,0.184000,-0.002219,0.004411,-0.024946,0.181000,0.369000,-10.128000
1779272921778282383,2026-05-20 15:58:41.777,-2.111000,1.353000,297.643000,-0.288300,0.143500,0.183900,-0.003462,0.005608,-0.025924,0.237000,0.385000,-10.152000
1779272921803201198,2026-05-20 15:58:41.802,-2.117000,1.361000,297.604000,-0.288400,0.137600,0.182800,-0.003547,0.010976,-0.025038,0.178000,0.382000,-10.174000
1779272921829268383,2026-05-20 15:58:41.828,-2.122000,1.375000,297.567000,-0.287400,0.144500,0.185000,-0.002319,0.012169,-0.025497,0.209000,0.395000,-10.146000
1779272921853340587,2026-05-20 15:58:41.852,-2.128000,1.392000,297.530000,-0.291200,0.138600,0.178300,-0.003755,0.013989,-0.027094,0.253000,0.357000,-10.134000
1779272921879285365,2026-05-20 15:58:41.878,-2.132000,1.410000,297.489000,-0.289300,0.138600,0.179500,-0.002412,0.014398,-0.024775,0.215000,0.399000,-10.140000
1779272921903283328,2026-05-20 15:58:41.902,-2.135000,1.431000,297.451000,-0.290300,0.136700,0.179500,-0.000518,0.016244,-0.026197,0.269000,0.375000,-10.147000
1779272921929234439,2026-05-20 15:58:41.928,-2.136000,1.453000,297.411000,-0.290300,0.136700,0.181700,0.000613,0.016940,-0.025190,0.243000,0.368000,-10.141000
1779272921953217457,2026-05-20 15:58:41.952,-2.137000,1.477000,297.372000,-0.290300,0.137600,0.176200,0.000085,0.018327,-0.025521,0.237000,0.424000,-10.121000
1779272921979289420,2026-05-20 15:58:41.978,-2.136000,1.500000,297.333000,-0.290200,0.140600,0.181600,0.002661,0.017144,-0.025827,0.272000,0.405000,-10.168000
1779272922003184716,2026-05-20 15:58:42.002,-2.133000,1.522000,297.296000,-0.291200,0.137700,0.178300,0.002277,0.015892,-0.025744,0.286000,0.375000,-10.105000
1779272922029322587,2026-05-20 15:58:42.028,-2.130000,1.545000,297.258000,-0.290300,0.138600,0.180600,0.003543,0.016554,-0.023994,0.260000,0.359000,-10.172000
1779272922053144976,2026-05-20 15:58:42.052,-2.126000,1.565000,297.217000,-0.289400,0.137600,0.179500,0.004431,0.012718,-0.025924,0.303000,0.399000,-10.132000
1779272922079445365,2026-05-20 15:58:42.078,-2.119000,1.584000,297.176000,-0.290300,0.139600,0.179500,0.005972,0.012411,-0.024917,0.290000,0.379000,-10.138000
1779272922103185383,2026-05-20 15:58:42.102,-2.112000,1.599000,297.139000,-0.290300,0.138600,0.179500,0.005637,0.010439,-0.024477,0.283000,0.376000,-10.155000
1779272922129254494,2026-05-20 15:58:42.128,-2.105000,1.611000,297.104000,-0.292200,0.135700,0.178300,0.006114,0.008542,-0.024254,0.308000,0.360000,-10.141000
1779272922191813809,2026-05-20 15:58:42.190,-2.090000,1.629000,297.035000,-0.291200,0.139600,0.180500,0.006610,0.003265,-0.023945,0.302000,0.381000,-10.162000
1779272922203239994,2026-05-20 15:58:42.202,-2.081000,1.631000,297.004000,-0.291300,0.136700,0.180500,0.005238,0.000243,-0.023859,0.314000,0.368000,-10.180000
1779272922229240661,2026-05-20 15:58:42.228,-2.074000,1.631000,296.969000,-0.292200,0.137700,0.182600,0.004375,0.000042,-0.025583,0.305000,0.382000,-10.161000
1779272922254264772,2026-05-20 15:58:42.253,-2.066000,1.630000,296.932000,-0.291300,0.134700,0.181600,0.004651,-0.000348,-0.024447,0.299000,0.315000,-10.169000
1779272922279745753,2026-05-20 15:58:42.278,-2.059000,1.624000,296.896000,-0.292200,0.136700,0.177200,0.003367,-0.004669,-0.024718,0.322000,0.329000,-10.212000
1779272922304161624,2026-05-20 15:58:42.303,-2.056000,1.616000,296.862000,-0.294000,0.138700,0.179300,0.001746,-0.006793,-0.024896,0.283000,0.335000,-10.152000
1779272922329040050,2026-05-20 15:58:42.328,-2.053000,1.605000,296.827000,-0.291200,0.137700,0.179400,0.002235,-0.008948,-0.025519,0.286000,0.357000,-10.192000
1779272922354158272,2026-05-20 15:58:42.353,-2.052000,1.591000,296.791000,-0.292200,0.136700,0.180500,0.000228,-0.008778,-0.024962,0.276000,0.372000,-10.159000
1779272922379315142,2026-05-20 15:58:42.378,-2.054000,1.579000,296.758000,-0.291200,0.138600,0.180500,-0.001231,-0.009839,-0.024138,0.258000,0.344000,-10.149000
1779272922404088661,2026-05-20 15:58:42.403,-2.056000,1.564000,296.724000,-0.295000,0.134800,0.180400,-0.001624,-0.009008,-0.025564,0.280000,0.339000,-10.162000
1779272922429116753,2026-05-20 15:58:42.428,-2.059000,1.547000,296.688000,-0.291200,0.137700,0.181600,-0.002812,-0.011367,-0.024086,0.250000,0.360000,-10.139000
1779272922454187531,2026-05-20 15:58:42.453,-2.063000,1.529000,296.654000,-0.292300,0.132800,0.178300,-0.002950,-0.011325,-0.024778,0.238000,0.378000,-10.158000
1779272922479248290,2026-05-20 15:58:42.478,-2.069000,1.512000,296.621000,-0.293200,0.134800,0.182600,-0.003557,-0.009572,-0.025513,0.255000,0.372000,-10.144000
1779272922504266512,2026-05-20 15:58:42.503,-2.077000,1.495000,296.585000,-0.289400,0.134700,0.183900,-0.004617,-0.009904,-0.024598,0.239000,0.360000,-10.165000
1779272922529079994,2026-05-20 15:58:42.528,-2.084000,1.479000,296.550000,-0.291300,0.135700,0.183800,-0.004108,-0.010307,-0.024006,0.228000,0.351000,-10.138000
1779272922554239938,2026-05-20 15:58:42.553,-2.091000,1.463000,296.514000,-0.292300,0.131800,0.185900,-0.004544,-0.008323,-0.024824,0.228000,0.346000,-10.151000
1779272922579246086,2026-05-20 15:58:42.578,-2.100000,1.450000,296.478000,-0.290400,0.132700,0.181700,-0.004398,-0.005958,-0.026226,0.222000,0.414000,-10.126000
1779272922604150438,2026-05-20 15:58:42.603,-2.107000,1.439000,296.444000,-0.290400,0.134700,0.182800,-0.004602,-0.004180,-0.023285,0.231000,0.363000,-10.161000
1779272922629001568,2026-05-20 15:58:42.628,-2.114000,1.428000,296.412000,-0.290500,0.130800,0.177400,-0.003815,-0.004256,-0.024377,0.233000,0.385000,-10.136000
1779272922654136235,2026-05-20 15:58:42.653,-2.121000,1.420000,296.375000,-0.291300,0.134700,0.178400,-0.001390,-0.001915,-0.023537,0.218000,0.370000,-10.121000
1779272922679273160,2026-05-20 15:58:42.678,-2.124000,1.414000,296.341000,-0.290200,0.142600,0.183800,-0.001712,-0.000532,-0.024894,0.208000,0.374000,-10.141000
1779272922704054827,2026-05-20 15:58:42.703,-2.129000,1.410000,296.311000,-0.291300,0.134700,0.184900,-0.002096,0.001563,-0.024994,0.227000,0.408000,-10.172000
1779272922729067846,2026-05-20 15:58:42.728,-2.131000,1.411000,296.275000,-0.292300,0.132800,0.183800,0.000233,0.001262,-0.024337,0.225000,0.403000,-10.147000
1779272922754093623,2026-05-20 15:58:42.753,-2.132000,1.411000,296.239000,-0.293300,0.129800,0.182700,0.001030,0.002955,-0.023441,0.267000,0.377000,-10.155000
1779272922779196105,2026-05-20 15:58:42.778,-2.131000,1.414000,296.203000,-0.292300,0.132800,0.180500,0.002337,0.005034,-0.022225,0.202000,0.359000,-10.162000
1779272922804062827,2026-05-20 15:58:42.802,-2.129000,1.420000,296.170000,-0.294100,0.132800,0.181500,0.003547,0.006846,-0.024312,0.243000,0.400000,-10.134000
1779272922829016142,2026-05-20 15:58:42.827,-2.127000,1.428000,296.134000,-0.294000,0.137700,0.181500,0.003762,0.007379,-0.023654,0.259000,0.374000,-10.141000
1779272922854131049,2026-05-20 15:58:42.853,-2.122000,1.438000,296.103000,-0.295900,0.135800,0.179200,0.003937,0.009505,-0.024040,0.213000,0.430000,-10.131000
1779272922879274697,2026-05-20 15:58:42.878,-2.116000,1.448000,296.070000,-0.292200,0.134700,0.181600,0.003803,0.009163,-0.023085,0.235000,0.375000,-10.130000
1779272922903176438,2026-05-20 15:58:42.902,-2.111000,1.457000,296.038000,-0.294100,0.134800,0.180400,0.004532,0.009793,-0.021764,0.263000,0.364000,-10.135000
1779272922928976790,2026-05-20 15:58:42.927,-2.105000,1.469000,296.006000,-0.293200,0.132800,0.178300,0.004347,0.007763,-0.022408,0.263000,0.383000,-10.138000
1779272922954042808,2026-05-20 15:58:42.952,-2.099000,1.483000,295.976000,-0.294200,0.131800,0.179300,0.004387,0.009151,-0.021836,0.264000,0.364000,-10.174000
1779272922979114790,2026-05-20 15:58:42.978,-2.093000,1.493000,295.946000,-0.295100,0.132800,0.183600,0.004183,0.010503,-0.022369,0.267000,0.388000,-10.112000
1779272923004015605,2026-05-20 15:58:43.002,-2.088000,1.506000,295.911000,-0.294100,0.132800,0.179300,0.004342,0.008780,-0.020947,0.230000,0.347000,-10.122000
1779272923029013086,2026-05-20 15:58:43.027,-2.084000,1.517000,295.881000,-0.293300,0.129800,0.180500,0.003411,0.009169,-0.021395,0.274000,0.352000,-10.127000
1779272923054133975,2026-05-20 15:58:43.053,-2.082000,1.527000,295.849000,-0.293300,0.128800,0.179400,0.002862,0.008112,-0.021519,0.280000,0.344000,-10.165000
1779272923079240716,2026-05-20 15:58:43.078,-2.079000,1.536000,295.814000,-0.294200,0.128900,0.179400,0.001633,0.007349,-0.022512,0.262000,0.360000,-10.124000
1779272923103997457,2026-05-20 15:58:43.102,-2.078000,1.544000,295.780000,-0.295100,0.131800,0.177100,-0.000017,0.005930,-0.022500,0.292000,0.374000,-10.146000
1779272923128931938,2026-05-20 15:58:43.127,-2.078000,1.551000,295.748000,-0.291400,0.130800,0.177300,0.000479,0.004589,-0.022290,0.274000,0.372000,-10.214000
1779272923191507919,2026-05-20 15:58:43.190,-2.081000,1.559000,295.679000,-0.297000,0.129900,0.174900,-0.000930,0.001816,-0.023373,0.273000,0.339000,-10.137000
1779272923203962290,2026-05-20 15:58:43.202,-2.084000,1.560000,295.644000,-0.294200,0.128900,0.180500,-0.001926,0.001831,-0.023913,0.287000,0.381000,-10.188000
1779272923228960716,2026-05-20 15:58:43.227,-2.087000,1.560000,295.609000,-0.293100,0.138700,0.181500,-0.002208,-0.000764,-0.024170,0.279000,0.357000,-10.191000
1779272923254095882,2026-05-20 15:58:43.252,-2.091000,1.558000,295.574000,-0.294100,0.132800,0.178200,-0.001616,-0.001411,-0.023147,0.297000,0.359000,-10.122000
1779272923279111586,2026-05-20 15:58:43.278,-2.096000,1.554000,295.546000,-0.296000,0.131800,0.179200,-0.003020,-0.003656,-0.023543,0.263000,0.366000,-10.181000
1779272923303981512,2026-05-20 15:58:43.302,-2.100000,1.550000,295.515000,-0.294200,0.131800,0.181500,-0.002799,-0.002924,-0.021920,0.315000,0.357000,-10.195000
1779272923328892290,2026-05-20 15:58:43.327,-2.106000,1.543000,295.482000,-0.294300,0.126900,0.181500,-0.002517,-0.003381,-0.023257,0.276000,0.373000,-10.165000
1779272923353883179,2026-05-20 15:58:43.352,-2.109000,1.534000,295.450000,-0.293400,0.125900,0.180500,-0.002059,-0.006250,-0.022155,0.250000,0.391000,-10.178000
1779272923379087586,2026-05-20 15:58:43.378,-2.113000,1.524000,295.420000,-0.295200,0.126900,0.179300,-0.001464,-0.005038,-0.022396,0.270000,0.376000,-10.156000
1779272923403940456,2026-05-20 15:58:43.402,-2.115000,1.514000,295.389000,-0.297100,0.126000,0.179200,-0.000990,-0.005288,-0.023176,0.265000,0.370000,-10.163000
1779272923428848493,2026-05-20 15:58:43.427,-2.114000,1.504000,295.359000,-0.296100,0.127900,0.178200,0.001084,-0.006518,-0.021955,0.254000,0.380000,-10.170000
1779272923453858734,2026-05-20 15:58:43.452,-2.114000,1.493000,295.329000,-0.290500,0.127800,0.181700,0.001235,-0.005458,-0.021961,0.277000,0.366000,-10.151000
1779272923479224086,2026-05-20 15:58:43.478,-2.113000,1.481000,295.298000,-0.295200,0.128900,0.181500,0.001839,-0.006804,-0.022178,0.235000,0.392000,-10.148000
1779272923503936197,2026-05-20 15:58:43.502,-2.112000,1.471000,295.266000,-0.295100,0.130900,0.181500,0.002009,-0.005057,-0.022288,0.239000,0.390000,-10.178000
1779272923529090179,2026-05-20 15:58:43.527,-2.109000,1.459000,295.237000,-0.295200,0.128900,0.178200,0.003034,-0.006210,-0.021138,0.274000,0.328000,-10.151000
1779272923553991438,2026-05-20 15:58:43.552,-2.106000,1.450000,295.206000,-0.295200,0.127900,0.177200,0.004084,-0.004907,-0.021903,0.231000,0.393000,-10.140000
1779272923579221160,2026-05-20 15:58:43.578,-2.103000,1.441000,295.179000,-0.296100,0.127900,0.179300,0.002990,-0.005123,-0.019567,0.209000,0.377000,-10.164000
1779272923604057030,2026-05-20 15:58:43.602,-2.098000,1.433000,295.149000,-0.296200,0.125000,0.178200,0.003778,-0.004416,-0.020836,0.204000,0.414000,-10.207000
1779272923628864327,2026-05-20 15:58:43.627,-2.093000,1.423000,295.122000,-0.294300,0.124900,0.183700,0.002481,-0.007507,-0.016243,0.261000,0.394000,-10.218000
1779272923653863827,2026-05-20 15:58:43.652,-2.088000,1.408000,295.098000,-0.293200,0.133800,0.183700,0.003330,-0.010021,-0.017395,0.225000,0.331000,-10.077000
1779272923678975049,2026-05-20 15:58:43.677,-2.083000,1.391000,295.078000,-0.295300,0.124000,0.183700,0.004485,-0.011587,-0.013258,0.205000,0.359000,-10.167000
1779272923703905697,2026-05-20 15:58:43.702,-2.079000,1.376000,295.063000,-0.295200,0.128900,0.182600,0.002413,-0.009497,-0.007280,0.216000,0.385000,-10.212000
1779272923728939197,2026-05-20 15:58:43.727,-2.078000,1.367000,295.057000,-0.295200,0.126900,0.179300,-0.000394,-0.002493,-0.003338,0.231000,0.340000,-10.085000
1779272923753895623,2026-05-20 15:58:43.752,-2.079000,1.367000,295.054000,-0.295300,0.123000,0.184800,-0.000165,0.004279,0.000076,0.221000,0.392000,-10.117000
1779272923779017882,2026-05-20 15:58:43.777,-2.079000,1.376000,295.059000,-0.294300,0.125900,0.182600,-0.001860,0.006271,0.004777,0.165000,0.350000,-10.153000
1779272923803959345,2026-05-20 15:58:43.802,-2.085000,1.392000,295.069000,-0.294300,0.126900,0.180500,-0.004175,0.012924,0.011622,0.313000,0.339000,-10.125000
1779272923828864197,2026-05-20 15:58:43.827,-2.091000,1.417000,295.089000,-0.297000,0.129900,0.183600,-0.006100,0.022113,0.014579,0.211000,0.332000,-10.102000
1779272923853950215,2026-05-20 15:58:43.852,-2.098000,1.444000,295.115000,-0.296100,0.129900,0.182500,-0.006208,0.018619,0.019695,0.265000,0.295000,-10.101000
1779272923878948086,2026-05-20 15:58:43.877,-2.108000,1.467000,295.155000,-0.295200,0.128900,0.184700,-0.007945,0.007493,0.032889,0.292000,0.320000,-10.210000
1779272923903896178,2026-05-20 15:58:43.902,-2.118000,1.478000,295.210000,-0.297000,0.127900,0.181400,-0.008957,0.003373,0.044783,0.253000,0.323000,-10.240000
1779272923928827789,2026-05-20 15:58:43.927,-2.127000,1.481000,295.281000,-0.295200,0.127900,0.178200,-0.007836,0.002202,0.056458,0.189000,0.378000,-10.038000
1779272923953979493,2026-05-20 15:58:43.952,-2.139000,1.480000,295.384000,-0.294100,0.133800,0.180400,-0.012162,-0.005046,0.081045,0.147000,0.338000,-10.175000
1779272923979031641,2026-05-20 15:58:43.977,-2.156000,1.474000,295.520000,-0.293200,0.133800,0.178300,-0.014844,-0.013146,0.103138,0.052000,0.229000,-10.190000
1779272924003882586,2026-05-20 15:58:44.002,-2.174000,1.461000,295.690000,-0.294200,0.129800,0.180400,-0.015088,-0.013576,0.123434,0.192000,0.369000,-10.175000
1779272924028866697,2026-05-20 15:58:44.027,-2.189000,1.448000,295.890000,-0.292300,0.130800,0.180500,-0.014145,-0.013770,0.145045,0.304000,0.411000,-10.045000
1779272924053975937,2026-05-20 15:58:44.052,-2.206000,1.443000,296.127000,-0.293200,0.133800,0.178300,-0.020510,-0.010059,0.176280,0.234000,0.342000,-10.139000
1779272924078805141,2026-05-20 15:58:44.077,-2.225000,1.453000,296.394000,-0.289500,0.129800,0.185000,-0.019712,0.000326,0.190208,0.414000,0.503000,-10.117000
1779272924103870252,2026-05-20 15:58:44.102,-2.241000,1.471000,296.682000,-0.291300,0.136700,0.179400,-0.012817,0.007363,0.203132,0.507000,0.484000,-10.111000
1779272924128824141,2026-05-20 15:58:44.127,-2.253000,1.489000,296.994000,-0.291000,0.146500,0.184800,-0.012913,0.005430,0.225222,0.417000,0.214000,-10.186000
1779272924192238382,2026-05-20 15:58:44.191,-2.274000,1.545000,297.664000,-0.291000,0.147500,0.180400,-0.012364,0.018914,0.241884,0.042000,0.507000,-9.957000
1779272924203882234,2026-05-20 15:58:44.202,-2.279000,1.586000,298.012000,-0.291100,0.142600,0.177200,-0.011322,0.015667,0.248085,-0.024000,0.246000,-10.184000
1779272924228822993,2026-05-20 15:58:44.227,-2.283000,1.623000,298.373000,-0.286400,0.144400,0.178500,-0.008517,0.012659,0.253104,0.500000,0.580000,-10.250000
1779272924253794030,2026-05-20 15:58:44.252,-2.281000,1.659000,298.739000,-0.285500,0.145400,0.181800,-0.005072,0.018385,0.257694,0.305000,0.545000,-9.848000
1779272924278778660,2026-05-20 15:58:44.277,-2.272000,1.702000,299.115000,-0.285400,0.150300,0.182900,-0.001751,0.020279,0.262478,0.382000,0.480000,-10.131000
1779272924303907660,2026-05-20 15:58:44.302,-2.261000,1.749000,299.504000,-0.285300,0.153300,0.179600,0.000146,0.018177,0.275237,0.261000,0.455000,-10.133000
1779272924328770752,2026-05-20 15:58:44.327,-2.246000,1.787000,299.898000,-0.283500,0.152300,0.178600,0.003318,0.010581,0.273569,0.296000,0.589000,-10.176000
1779272924353711326,2026-05-20 15:58:44.352,-2.228000,1.816000,300.304000,-0.283500,0.152300,0.179700,0.007308,0.008581,0.280552,0.281000,0.690000,-10.229000
1779272924378741141,2026-05-20 15:58:44.377,-2.206000,1.844000,300.717000,-0.283300,0.158200,0.180700,0.005209,0.007575,0.294522,0.225000,0.506000,-10.177000
1779272924403865011,2026-05-20 15:58:44.402,-2.183000,1.872000,301.138000,-0.281500,0.158100,0.178700,0.007450,0.000484,0.301039,0.261000,0.276000,-10.114000
1779272924428757826,2026-05-20 15:58:44.427,-2.160000,1.891000,301.574000,-0.278600,0.160000,0.179900,0.004799,-0.008393,0.305947,0.588000,0.375000,-10.310000
1779272924453725734,2026-05-20 15:58:44.452,-2.134000,1.894000,302.021000,-0.278500,0.165000,0.180900,0.006129,-0.010660,0.315061,0.430000,0.136000,-10.238000
1779272924478774733,2026-05-20 15:58:44.477,-2.108000,1.890000,302.474000,-0.276600,0.164900,0.182100,0.006815,-0.014767,0.320410,0.226000,0.152000,-9.985000
1779272924503804345,2026-05-20 15:58:44.502,-2.085000,1.886000,302.940000,-0.276800,0.160000,0.183200,0.005851,-0.019906,0.325195,0.447000,0.494000,-10.254000
1779272924528727122,2026-05-20 15:58:44.527,-2.062000,1.875000,303.417000,-0.274700,0.166900,0.185500,0.003207,-0.022583,0.335429,0.356000,0.465000,-10.237000
1779272924553700752,2026-05-20 15:58:44.552,-2.039000,1.846000,303.896000,-0.270800,0.176600,0.181200,0.005938,-0.032362,0.335227,0.465000,0.237000,-10.175000
1779272924578750548,2026-05-20 15:58:44.577,-2.016000,1.809000,304.385000,-0.269900,0.174600,0.181300,0.006100,-0.037678,0.337842,0.232000,0.290000,-10.239000
1779272924603816993,2026-05-20 15:58:44.602,-1.996000,1.774000,304.881000,-0.268900,0.176600,0.181300,0.003368,-0.038634,0.342790,0.295000,0.293000,-10.253000
1779272924628700104,2026-05-20 15:58:44.627,-1.978000,1.738000,305.374000,-0.266900,0.183400,0.181400,0.002263,-0.039928,0.343110,0.463000,0.390000,-10.332000
1779272924653873307,2026-05-20 15:58:44.652,-1.966000,1.688000,305.875000,-0.266000,0.182400,0.178200,-0.005077,-0.043982,0.350307,0.281000,0.313000,-10.091000
1779272924678729919,2026-05-20 15:58:44.677,-1.955000,1.632000,306.371000,-0.262300,0.180400,0.183800,-0.005401,-0.053161,0.348702,0.253000,0.088000,-10.114000
1779272924703816419,2026-05-20 15:58:44.702,-1.948000,1.583000,306.869000,-0.260400,0.182300,0.183900,-0.002902,-0.047055,0.342604,0.326000,0.359000,-10.267000
1779272924728928919,2026-05-20 15:58:44.727,-1.947000,1.536000,307.367000,-0.259400,0.185300,0.186100,-0.011558,-0.041558,0.346024,0.233000,0.411000,-10.158000
1779272924753770511,2026-05-20 15:58:44.752,-1.951000,1.484000,307.860000,-0.254700,0.190100,0.181900,-0.014392,-0.046817,0.342242,0.284000,0.455000,-10.044000
1779272924778758159,2026-05-20 15:58:44.777,-1.955000,1.428000,308.350000,-0.254700,0.189100,0.187400,-0.014388,-0.053904,0.339828,0.220000,0.380000,-10.202000
1779272924803814400,2026-05-20 15:58:44.802,-1.964000,1.376000,308.840000,-0.253700,0.192000,0.184100,-0.013895,-0.047100,0.338846,0.220000,0.482000,-10.141000
1779272924828692844,2026-05-20 15:58:44.827,-1.975000,1.333000,309.324000,-0.250700,0.199900,0.190700,-0.017914,-0.035091,0.332361,0.164000,0.517000,-10.103000
1779272924853675474,2026-05-20 15:58:44.852,-1.990000,1.296000,309.808000,-0.249900,0.195900,0.188600,-0.016749,-0.037685,0.330280,0.130000,0.541000,-10.135000
1779272924878786289,2026-05-20 15:58:44.877,-2.010000,1.256000,310.290000,-0.247000,0.198800,0.187700,-0.020754,-0.042768,0.334520,0.207000,0.460000,-10.188000
1779272924903757326,2026-05-20 15:58:44.902,-2.026000,1.218000,310.772000,-0.245200,0.197800,0.186700,-0.014961,-0.036489,0.329272,0.093000,0.292000,-10.166000
1779272924928757622,2026-05-20 15:58:44.927,-2.045000,1.190000,311.248000,-0.242200,0.203700,0.191100,-0.018704,-0.024294,0.328303,0.155000,0.455000,-10.118000
1779272924953599252,2026-05-20 15:58:44.952,-2.063000,1.177000,311.727000,-0.239400,0.205500,0.184700,-0.020297,-0.016872,0.330064,0.087000,0.363000,-10.053000
1779272924978744307,2026-05-20 15:58:44.977,-2.088000,1.169000,312.202000,-0.240200,0.210500,0.189000,-0.022284,-0.019765,0.332009,0.161000,0.390000,-10.213000
1779272925003772492,2026-05-20 15:58:45.002,-2.108000,1.162000,312.679000,-0.237500,0.205500,0.187000,-0.018334,-0.015310,0.330487,0.149000,0.343000,-10.197000
1779272925028691122,2026-05-20 15:58:45.027,-2.124000,1.162000,313.151000,-0.235600,0.210400,0.186000,-0.016362,-0.005493,0.333370,0.063000,0.408000,-10.052000
1779272925053725307,2026-05-20 15:58:45.052,-2.138000,1.174000,313.629000,-0.235400,0.217300,0.188100,-0.020148,-0.001314,0.334252,0.193000,0.183000,-10.153000
1779272925078796122,2026-05-20 15:58:45.077,-2.156000,1.196000,314.109000,-0.231700,0.218300,0.206700,-0.016520,0.001878,0.336079,0.171000,0.340000,-10.155000
1779272925103737289,2026-05-20 15:58:45.102,-2.169000,1.218000,314.587000,-0.231500,0.225100,0.189300,-0.016947,0.004188,0.337009,0.228000,0.267000,-10.147000
1779272925128748474,2026-05-20 15:58:45.127,-2.177000,1.242000,315.078000,-0.232600,0.220200,0.188200,-0.012705,0.009455,0.341295,0.200000,0.342000,-10.054000
1779272925192071733,2026-05-20 15:58:45.190,-2.189000,1.314000,316.063000,-0.227600,0.233900,0.187300,-0.009805,0.014218,0.345482,0.355000,0.470000,-10.228000
1779272925203810974,2026-05-20 15:58:45.202,-2.194000,1.352000,316.558000,-0.223100,0.225900,0.186500,-0.015018,0.013649,0.347306,0.225000,0.513000,-10.033000
1779272925228671363,2026-05-20 15:58:45.227,-2.194000,1.385000,317.057000,-0.222300,0.222900,0.187600,-0.007019,0.009058,0.348490,0.191000,0.452000,-10.034000
1779272925253703918,2026-05-20 15:58:45.252,-2.191000,1.422000,317.559000,-0.220400,0.223900,0.185600,-0.005804,0.011791,0.352653,0.312000,0.628000,-10.230000
1779272925278939437,2026-05-20 15:58:45.277,-2.182000,1.462000,318.064000,-0.217400,0.229700,0.190000,-0.001485,0.014869,0.352663,0.341000,0.356000,-10.176000
1779272925303728714,2026-05-20 15:58:45.302,-2.178000,1.498000,318.572000,-0.216500,0.229800,0.205200,-0.004191,0.011562,0.353471,0.188000,0.554000,-10.123000
1779272925328681214,2026-05-20 15:58:45.327,-2.168000,1.529000,319.079000,-0.215500,0.233600,0.185700,0.000221,0.004353,0.352231,0.334000,0.241000,-10.305000
1779272925353772529,2026-05-20 15:58:45.352,-2.158000,1.553000,319.586000,-0.211800,0.231600,0.185900,0.002017,0.000859,0.352477,0.350000,0.359000,-10.244000
1779272925378935992,2026-05-20 15:58:45.377,-2.141000,1.569000,320.092000,-0.208900,0.237400,0.188200,0.001300,-0.001557,0.348816,0.337000,0.149000,-10.269000
1779272925403637640,2026-05-20 15:58:45.402,-2.128000,1.582000,320.595000,-0.206900,0.242400,0.207800,0.002988,-0.003948,0.350854,0.265000,0.303000,-10.221000
1779272925428742548,2026-05-20 15:58:45.427,-2.112000,1.592000,321.095000,-0.207900,0.238400,0.186100,-0.002040,-0.009120,0.348674,0.331000,0.105000,-10.226000
1779272925453639307,2026-05-20 15:58:45.452,-2.097000,1.594000,321.590000,-0.202200,0.244200,0.203700,0.005825,-0.013633,0.343644,0.352000,0.246000,-10.268000
1779272925478918566,2026-05-20 15:58:45.477,-2.079000,1.586000,322.081000,-0.199400,0.244200,0.207100,0.001849,-0.019373,0.341978,0.340000,0.277000,-10.180000
1779272925503606622,2026-05-20 15:58:45.502,-2.062000,1.574000,322.567000,-0.197500,0.247100,0.186500,0.004708,-0.020871,0.338121,0.301000,0.378000,-10.209000
1779272925528726825,2026-05-20 15:58:45.527,-2.049000,1.560000,323.049000,-0.196500,0.250000,0.186600,-0.001361,-0.023932,0.333186,0.343000,0.379000,-10.164000
1779272925553590677,2026-05-20 15:58:45.552,-2.036000,1.540000,323.529000,-0.193500,0.259800,0.186600,0.003423,-0.026540,0.332667,0.334000,0.279000,-10.239000
1779272925578951418,2026-05-20 15:58:45.577,-2.024000,1.513000,324.003000,-0.193700,0.250000,0.206200,0.000569,-0.031925,0.328628,0.371000,0.246000,-10.130000
1779272925603609955,2026-05-20 15:58:45.602,-2.012000,1.482000,324.479000,-0.189900,0.251900,0.209700,0.001829,-0.032995,0.328015,0.197000,0.301000,-10.189000
1779272925628652122,2026-05-20 15:58:45.627,-2.006000,1.454000,324.954000,-0.188000,0.253800,0.191300,-0.005777,-0.030042,0.330261,0.302000,0.278000,-10.228000
1779272925653568548,2026-05-20 15:58:45.652,-2.002000,1.429000,325.432000,-0.188000,0.256700,0.191300,-0.006328,-0.029236,0.332636,0.287000,0.155000,-10.149000
1779272925678575677,2026-05-20 15:58:45.677,-2.004000,1.400000,325.909000,-0.181400,0.260900,0.213400,-0.008449,-0.035328,0.330494,0.276000,0.229000,-10.149000
1779272925703706214,2026-05-20 15:58:45.702,-2.005000,1.366000,326.391000,-0.181500,0.258900,0.203600,-0.010279,-0.034247,0.333915,0.219000,0.291000,-10.160000
1779272925728694029,2026-05-20 15:58:45.727,-2.009000,1.337000,326.872000,-0.177600,0.263700,0.210300,-0.014811,-0.028913,0.335756,0.192000,0.236000,-10.109000
1779272925753555307,2026-05-20 15:58:45.752,-2.018000,1.315000,327.357000,-0.178700,0.258800,0.208100,-0.016852,-0.025912,0.337033,0.276000,0.318000,-10.076000
1779272925778571696,2026-05-20 15:58:45.777,-2.031000,1.296000,327.841000,-0.174800,0.264600,0.192000,-0.017027,-0.026118,0.338633,0.267000,0.398000,-10.142000
1779272925803559770,2026-05-20 15:58:45.802,-2.043000,1.276000,328.332000,-0.169100,0.271400,0.211700,-0.017356,-0.024395,0.339941,0.175000,0.456000,-10.122000
1779272925828521473,2026-05-20 15:58:45.827,-2.055000,1.260000,328.823000,-0.168300,0.265500,0.208600,-0.017538,-0.021422,0.343207,0.202000,0.372000,-10.082000
1779272925853509085,2026-05-20 15:58:45.852,-2.069000,1.253000,329.319000,-0.166400,0.267400,0.193400,-0.017345,-0.016305,0.342276,0.190000,0.471000,-10.092000
1779272925878558973,2026-05-20 15:58:45.877,-2.088000,1.252000,329.817000,-0.161600,0.270300,0.213200,-0.021063,-0.012303,0.346755,0.237000,0.483000,-10.185000
1779272925903571177,2026-05-20 15:58:45.902,-2.102000,1.253000,330.317000,-0.161700,0.268400,0.212100,-0.014920,-0.010419,0.345988,0.198000,0.385000,-10.152000
1779272925928498251,2026-05-20 15:58:45.927,-2.115000,1.259000,330.814000,-0.158900,0.269300,0.212300,-0.013709,-0.006463,0.346572,0.086000,0.398000,-10.083000
1779272925953496547,2026-05-20 15:58:45.952,-2.126000,1.273000,331.315000,-0.156800,0.277100,0.215600,-0.015193,-0.001133,0.344648,0.245000,0.303000,-10.210000
1779272925978610270,2026-05-20 15:58:45.977,-2.139000,1.294000,331.816000,-0.153200,0.271200,0.214700,-0.016082,0.005267,0.346960,0.190000,0.288000,-10.177000
1779272926003553733,2026-05-20 15:58:46.002,-2.149000,1.315000,332.313000,-0.150400,0.275000,0.215900,-0.015381,0.001422,0.343723,0.198000,0.218000,-10.152000
1779272926028558510,2026-05-20 15:58:46.027,-2.157000,1.333000,332.810000,-0.148600,0.271100,0.215000,-0.012473,-0.001195,0.344847,0.299000,0.273000,-10.155000
1779272926053667029,2026-05-20 15:58:46.052,-2.159000,1.353000,333.300000,-0.146600,0.276900,0.213900,-0.013990,0.004281,0.343944,0.263000,0.148000,-10.127000
1779272926078594640,2026-05-20 15:58:46.077,-2.161000,1.379000,333.789000,-0.142800,0.279800,0.214100,-0.009897,0.007264,0.340413,0.248000,0.393000,-10.131000
1779272926103491307,2026-05-20 15:58:46.102,-2.165000,1.405000,334.276000,-0.140900,0.278800,0.212000,-0.013470,0.003124,0.338619,0.351000,0.329000,-10.194000
1779272926128539881,2026-05-20 15:58:46.127,-2.165000,1.420000,334.761000,-0.141800,0.280800,0.206500,-0.008457,-0.004351,0.336069,0.239000,0.342000,-10.051000
1779272926192056047,2026-05-20 15:58:46.191,-2.153000,1.448000,335.719000,-0.135200,0.284600,0.211200,-0.002583,0.001443,0.333629,0.231000,0.372000,-10.076000
1779272926203483695,2026-05-20 15:58:46.202,-2.148000,1.465000,336.196000,-0.130600,0.284500,0.214700,-0.007492,-0.002335,0.333287,0.386000,0.255000,-10.107000
1779272926228464269,2026-05-20 15:58:46.227,-2.143000,1.479000,336.678000,-0.130600,0.282500,0.207100,-0.003316,-0.006313,0.334468,0.324000,0.408000,-10.138000
1779272926253499010,2026-05-20 15:58:46.252,-2.136000,1.484000,337.156000,-0.126800,0.287400,0.213800,-0.005763,-0.009337,0.332552,0.336000,0.391000,-10.094000
1779272926278515973,2026-05-20 15:58:46.277,-2.126000,1.488000,337.635000,-0.124800,0.293200,0.211600,-0.003756,-0.010914,0.332752,0.300000,0.335000,-10.114000
1779272926303508955,2026-05-20 15:58:46.302,-2.120000,1.494000,338.116000,-0.124000,0.285400,0.209600,-0.005238,-0.012314,0.334758,0.303000,0.492000,-10.065000
1779272926328425899,2026-05-20 15:58:46.327,-2.115000,1.498000,338.600000,-0.120200,0.291200,0.215200,-0.003939,-0.011720,0.333770,0.409000,0.436000,-10.193000
1779272926353449881,2026-05-20 15:58:46.352,-2.109000,1.495000,339.083000,-0.120200,0.290200,0.211900,-0.005011,-0.016340,0.333375,0.264000,0.512000,-10.189000
1779272926378399881,2026-05-20 15:58:46.377,-2.100000,1.489000,339.570000,-0.114600,0.289100,0.207900,-0.000306,-0.019104,0.334764,0.235000,0.282000,-10.187000
1779272926403584010,2026-05-20 15:58:46.402,-2.097000,1.483000,340.058000,-0.110700,0.298900,0.215600,-0.002996,-0.017253,0.335606,0.277000,0.574000,-10.213000
1779272926428402325,2026-05-20 15:58:46.427,-2.093000,1.478000,340.545000,-0.110800,0.295000,0.212300,-0.009524,-0.014360,0.335544,0.309000,0.281000,-10.208000
1779272926453461269,2026-05-20 15:58:46.452,-2.094000,1.468000,341.034000,-0.106100,0.296800,0.216900,-0.004693,-0.020527,0.338063,0.234000,0.146000,-10.179000
1779272926478524992,2026-05-20 15:58:46.477,-2.092000,1.456000,341.525000,-0.105100,0.297800,0.214800,-0.007851,-0.024054,0.339959,0.289000,0.081000,-10.253000
1779272926503529973,2026-05-20 15:58:46.502,-2.091000,1.444000,342.017000,-0.102400,0.294800,0.216000,-0.006805,-0.018247,0.341752,0.270000,0.365000,-10.123000
1779272926528571306,2026-05-20 15:58:46.527,-2.091000,1.436000,342.507000,-0.099600,0.295700,0.212900,-0.015469,-0.016585,0.342758,0.313000,0.182000,-10.082000
1779272926553496029,2026-05-20 15:58:46.552,-2.097000,1.426000,343.002000,-0.093900,0.298600,0.206700,-0.012009,-0.021272,0.340575,0.244000,0.375000,-10.171000
1779272926578457825,2026-05-20 15:58:46.577,-2.103000,1.416000,343.497000,-0.092900,0.300500,0.218600,-0.015398,-0.020923,0.344127,0.246000,0.428000,-10.129000
1779272926603429510,2026-05-20 15:58:46.602,-2.104000,1.405000,343.991000,-0.091000,0.303400,0.215500,-0.009726,-0.018814,0.339927,0.338000,0.505000,-10.119000
1779272926628358473,2026-05-20 15:58:46.627,-2.109000,1.398000,344.486000,-0.086400,0.300400,0.213600,-0.013843,-0.018620,0.340750,0.267000,0.600000,-10.170000
1779272926653427288,2026-05-20 15:58:46.652,-2.116000,1.396000,344.981000,-0.084500,0.302300,0.215800,-0.011593,-0.014493,0.338968,0.251000,0.507000,-10.120000
1779272926678546214,2026-05-20 15:58:46.677,-2.124000,1.395000,345.473000,-0.082500,0.308200,0.216900,-0.011406,-0.013893,0.338273,0.277000,0.597000,-10.223000
1779272926703424973,2026-05-20 15:58:46.702,-2.125000,1.394000,345.965000,-0.080700,0.303300,0.208400,-0.008004,-0.011454,0.336102,0.254000,0.283000,-10.141000
1779272926728455936,2026-05-20 15:58:46.727,-2.131000,1.396000,346.457000,-0.077800,0.308100,0.213900,-0.009127,-0.012838,0.336990,0.216000,0.426000,-10.201000
1779272926753481677,2026-05-20 15:58:46.752,-2.134000,1.401000,346.948000,-0.074200,0.301200,0.216300,-0.010949,-0.008905,0.337451,0.281000,0.241000,-10.303000
1779272926778510158,2026-05-20 15:58:46.777,-2.140000,1.405000,347.440000,-0.071400,0.305100,0.218600,-0.010449,-0.008240,0.341107,0.186000,0.289000,-10.182000
1779272926803421177,2026-05-20 15:58:46.802,-2.141000,1.410000,347.932000,-0.068500,0.308000,0.215500,-0.009254,-0.009921,0.338517,0.291000,0.164000,-10.250000
1779272926828414380,2026-05-20 15:58:46.827,-2.142000,1.416000,348.424000,-0.067600,0.305000,0.217700,-0.006302,-0.008387,0.341058,0.248000,0.392000,-10.219000
1779272926853413214,2026-05-20 15:58:46.852,-2.140000,1.422000,348.916000,-0.063900,0.304900,0.214700,-0.010709,-0.008745,0.340482,0.259000,0.260000,-10.178000
1779272926878438658,2026-05-20 15:58:46.877,-2.142000,1.427000,349.407000,-0.061200,0.302900,0.217000,-0.007897,-0.009085,0.338605,0.246000,0.309000,-10.172000
1779272926903383602,2026-05-20 15:58:46.902,-2.142000,1.432000,349.899000,-0.058300,0.303800,0.216000,-0.007663,-0.011385,0.337743,0.302000,0.327000,-10.201000
1779272926928325139,2026-05-20 15:58:46.927,-2.140000,1.434000,350.390000,-0.056400,0.307700,0.215000,-0.006935,-0.009327,0.341189,0.341000,0.223000,-10.134000
1779272926953266639,2026-05-20 15:58:46.952,-2.139000,1.435000,350.879000,-0.052700,0.306600,0.195700,-0.010351,-0.010786,0.338261,0.309000,0.258000,-10.111000
1779272926979432047,2026-05-20 15:58:46.978,-2.138000,1.434000,351.371000,-0.048100,0.304600,0.216600,-0.007487,-0.015158,0.340662,0.259000,0.308000,-10.120000
1779272927003379732,2026-05-20 15:58:47.002,-2.140000,1.428000,351.864000,-0.047000,0.310500,0.217700,-0.011851,-0.018146,0.339328,0.372000,0.404000,-10.075000
1779272927029307454,2026-05-20 15:58:47.028,-2.138000,1.419000,352.356000,-0.043200,0.312400,0.217800,-0.007052,-0.017601,0.338274,0.306000,0.351000,-9.985000
1779272927053392936,2026-05-20 15:58:47.052,-2.137000,1.410000,352.845000,-0.039500,0.314300,0.216900,-0.009724,-0.022286,0.338359,0.294000,0.404000,-10.105000
1779272927079461306,2026-05-20 15:58:47.078,-2.138000,1.399000,353.336000,-0.039600,0.306500,0.220200,-0.008728,-0.023632,0.339552,0.344000,0.539000,-10.106000
1779272927103463954,2026-05-20 15:58:47.102,-2.142000,1.384000,353.826000,-0.035700,0.315200,0.220400,-0.011464,-0.022305,0.337911,0.318000,0.503000,-10.128000
1779272927128319769,2026-05-20 15:58:47.127,-2.142000,1.369000,354.320000,-0.032200,0.307300,0.219500,-0.008826,-0.024821,0.334974,0.246000,0.378000,-10.120000
1779272927191699176,2026-05-20 15:58:47.190,-2.149000,1.337000,355.307000,-0.028400,0.311200,0.219700,-0.009441,-0.021565,0.342187,0.222000,0.399000,-10.170000
1779272927203351602,2026-05-20 15:58:47.202,-2.157000,1.323000,355.803000,-0.024700,0.308100,0.218800,-0.010998,-0.021925,0.340065,0.170000,0.355000,-10.079000
1779272927228325936,2026-05-20 15:58:47.227,-2.162000,1.310000,356.303000,-0.020000,0.309000,0.219100,-0.012160,-0.023272,0.341632,0.300000,0.257000,-10.257000
1779272927253290380,2026-05-20 15:58:47.252,-2.170000,1.299000,356.804000,-0.016300,0.309000,0.217100,-0.011522,-0.019236,0.344889,0.224000,0.291000,-10.222000
1779272927278464806,2026-05-20 15:58:47.277,-2.175000,1.292000,357.303000,-0.015300,0.309900,0.219300,-0.014880,-0.015287,0.345649,0.245000,0.096000,-10.166000
1779272927303287565,2026-05-20 15:58:47.302,-2.183000,1.291000,357.803000,-0.013500,0.309900,0.218300,-0.012252,-0.014562,0.347981,0.278000,0.281000,-10.178000
1779272927328285028,2026-05-20 15:58:47.327,-2.190000,1.290000,358.305000,-0.007900,0.310800,0.216400,-0.016436,-0.014379,0.348639,0.290000,0.264000,-10.169000
1779272927353207954,2026-05-20 15:58:47.352,-2.192000,1.288000,358.807000,-0.008800,0.309800,0.218500,-0.007269,-0.013691,0.345975,0.239000,0.386000,-10.111000
1779272927378363713,2026-05-20 15:58:47.377,-2.192000,1.286000,359.303000,-0.002300,0.311700,0.216700,-0.011935,-0.015455,0.346197,0.224000,0.418000,-10.095000
1779272927403309769,2026-05-20 15:58:47.402,-2.192000,1.286000,359.802000,-0.002300,0.309700,0.215600,-0.009082,-0.012252,0.345325,0.179000,0.462000,-10.094000
1779272927428272584,2026-05-20 15:58:47.427,-2.194000,1.289000,0.301000,0.002400,0.311600,0.218000,-0.009949,-0.010674,0.342395,0.281000,0.464000,-10.115000
1779272927453226695,2026-05-20 15:58:47.452,-2.190000,1.292000,0.796000,0.003400,0.312500,0.222400,-0.004599,-0.011242,0.340410,0.283000,0.440000,-10.087000
1779272927479391324,2026-05-20 15:58:47.478,-2.186000,1.291000,1.293000,0.006200,0.314500,0.219300,-0.005035,-0.014910,0.343184,0.241000,0.516000,-10.105000
1779272927503293732,2026-05-20 15:58:47.502,-2.179000,1.289000,1.791000,0.009800,0.310500,0.219500,-0.002397,-0.014983,0.338801,0.317000,0.487000,-10.105000
1779272927528263954,2026-05-20 15:58:47.527,-2.174000,1.291000,2.285000,0.012600,0.309400,0.218600,-0.004828,-0.011342,0.338087,0.194000,0.543000,-10.145000
1779272927553245565,2026-05-20 15:58:47.552,-2.167000,1.293000,2.779000,0.015400,0.311300,0.219800,-0.004213,-0.011018,0.340248,0.282000,0.352000,-10.115000
1779272927579357176,2026-05-20 15:58:47.578,-2.162000,1.290000,3.275000,0.017300,0.313300,0.223100,-0.002398,-0.015799,0.339758,0.199000,0.520000,-10.114000
1779272927603266176,2026-05-20 15:58:47.602,-2.154000,1.291000,3.769000,0.021900,0.308300,0.222300,-0.002891,-0.012629,0.339720,0.255000,0.481000,-10.164000
1779272927629290750,2026-05-20 15:58:47.628,-2.148000,1.299000,4.264000,0.022800,0.309200,0.220200,-0.003076,-0.006258,0.339672,0.312000,0.385000,-10.171000
1779272927653244065,2026-05-20 15:58:47.652,-2.146000,1.312000,4.760000,0.027600,0.315000,0.217100,-0.007001,-0.005304,0.339696,0.257000,0.420000,-10.153000
1779272927679194639,2026-05-20 15:58:47.678,-2.145000,1.321000,5.258000,0.028500,0.310100,0.220400,-0.003712,-0.008914,0.341843,0.287000,0.518000,-10.204000
1779272927703316546,2026-05-20 15:58:47.702,-2.141000,1.328000,5.757000,0.031200,0.308100,0.217300,-0.006260,-0.007565,0.340552,0.235000,0.291000,-10.162000
1779272927729250806,2026-05-20 15:58:47.728,-2.142000,1.338000,6.258000,0.034100,0.308200,0.217500,-0.007815,-0.006017,0.343438,0.285000,0.345000,-10.200000
1779272927754255083,2026-05-20 15:58:47.753,-2.146000,1.350000,6.759000,0.038800,0.310100,0.215600,-0.010566,-0.004398,0.342782,0.250000,0.426000,-10.266000
1779272927779204120,2026-05-20 15:58:47.778,-2.151000,1.362000,7.260000,0.038800,0.310100,0.213400,-0.010748,-0.005750,0.344067,0.258000,0.374000,-10.199000
1779272927804278157,2026-05-20 15:58:47.803,-2.155000,1.370000,7.764000,0.043400,0.309000,0.215800,-0.010863,-0.010358,0.343881,0.236000,0.305000,-10.249000
1779272927829200306,2026-05-20 15:58:47.828,-2.160000,1.375000,8.267000,0.048100,0.309900,0.218200,-0.009593,-0.010858,0.346081,0.278000,0.341000,-10.199000
1779272927854404324,2026-05-20 15:58:47.853,-2.167000,1.378000,8.764000,0.050000,0.308900,0.211800,-0.013408,-0.012590,0.341960,0.299000,0.353000,-10.240000
1779272927879262380,2026-05-20 15:58:47.878,-2.173000,1.375000,9.261000,0.051800,0.308900,0.218400,-0.012071,-0.015468,0.340293,0.252000,0.282000,-10.199000
1779272927904280435,2026-05-20 15:58:47.903,-2.181000,1.369000,9.757000,0.052700,0.307900,0.221700,-0.013739,-0.018426,0.342479,0.295000,0.310000,-10.196000
1779272927929150861,2026-05-20 15:58:47.928,-2.186000,1.359000,10.253000,0.056400,0.307800,0.219700,-0.011377,-0.020371,0.340936,0.345000,0.213000,-10.186000
1779272927954156194,2026-05-20 15:58:47.953,-2.191000,1.347000,10.747000,0.060100,0.302800,0.216700,-0.011140,-0.023212,0.337961,0.283000,0.237000,-10.161000
1779272927979311991,2026-05-20 15:58:47.978,-2.197000,1.331000,11.238000,0.062900,0.303700,0.217900,-0.014004,-0.026179,0.339391,0.364000,0.306000,-10.162000
1779272928004259880,2026-05-20 15:58:48.003,-2.202000,1.314000,11.731000,0.065800,0.309600,0.220200,-0.013297,-0.025099,0.339966,0.275000,0.176000,-10.126000
1779272928029123028,2026-05-20 15:58:48.028,-2.208000,1.300000,12.227000,0.066600,0.302700,0.208400,-0.013654,-0.021841,0.340093,0.273000,0.294000,-10.167000
1779272928054180842,2026-05-20 15:58:48.053,-2.211000,1.289000,12.720000,0.072300,0.306500,0.220600,-0.011842,-0.020347,0.342309,0.318000,0.265000,-10.112000
1779272928079429454,2026-05-20 15:58:48.078,-2.215000,1.275000,13.215000,0.072200,0.304600,0.221700,-0.011715,-0.025355,0.342251,0.304000,0.220000,-10.036000
1779272928104403991,2026-05-20 15:58:48.103,-2.219000,1.261000,13.712000,0.075000,0.302500,0.219700,-0.011391,-0.024606,0.342632,0.267000,0.350000,-10.100000
1779272928129091379,2026-05-20 15:58:48.128,-2.220000,1.253000,14.207000,0.080600,0.303400,0.218800,-0.009516,-0.015921,0.342679,0.270000,0.482000,-10.063000
1779272928191721009,2026-05-20 15:58:48.190,-2.220000,1.244000,15.205000,0.085200,0.301400,0.223400,-0.006826,-0.018507,0.343665,0.230000,0.452000,-10.056000
1779272928204283361,2026-05-20 15:58:48.203,-2.222000,1.240000,15.702000,0.086100,0.300300,0.214800,-0.009633,-0.016602,0.342765,0.288000,0.473000,-10.110000
1779272928229197120,2026-05-20 15:58:48.228,-2.220000,1.238000,16.198000,0.091700,0.301200,0.221600,-0.008474,-0.011588,0.342780,0.166000,0.531000,-10.073000
1779272928254261046,2026-05-20 15:58:48.253,-2.217000,1.241000,16.697000,0.092500,0.296300,0.222800,-0.007346,-0.012798,0.343036,0.220000,0.514000,-10.039000
1779272928279565416,2026-05-20 15:58:48.278,-2.216000,1.243000,17.196000,0.096300,0.297200,0.223000,-0.005695,-0.015008,0.339986,0.349000,0.597000,-10.162000
1779272928304300305,2026-05-20 15:58:48.303,-2.213000,1.245000,17.692000,0.100100,0.302100,0.219900,-0.007089,-0.010022,0.342120,0.207000,0.497000,-10.116000
1779272928329151305,2026-05-20 15:58:48.328,-2.210000,1.248000,18.187000,0.099900,0.291300,0.222100,-0.007321,-0.009516,0.339795,0.172000,0.485000,-10.056000
1779272928354108416,2026-05-20 15:58:48.353,-2.210000,1.253000,18.681000,0.103700,0.294100,0.201700,-0.006253,-0.013723,0.336427,0.273000,0.565000,-10.207000
1779272928379372805,2026-05-20 15:58:48.378,-2.207000,1.252000,19.170000,0.108300,0.293100,0.219300,-0.005363,-0.017631,0.336649,0.265000,0.443000,-10.200000
1779272928404306842,2026-05-20 15:58:48.403,-2.204000,1.243000,19.660000,0.110100,0.291100,0.218300,-0.005351,-0.018472,0.335906,0.270000,0.443000,-10.135000
1779272928429155602,2026-05-20 15:58:48.428,-2.203000,1.239000,20.151000,0.113000,0.294900,0.221700,-0.004794,-0.013329,0.334866,0.203000,0.430000,-10.146000
1779272928454180046,2026-05-20 15:58:48.453,-2.203000,1.242000,20.639000,0.112900,0.292000,0.216300,-0.006719,-0.011292,0.335324,0.222000,0.438000,-10.165000
1779272928479232898,2026-05-20 15:58:48.478,-2.203000,1.242000,21.128000,0.115700,0.290900,0.202300,-0.005954,-0.016493,0.332354,0.322000,0.338000,-10.236000
1779272928504103639,2026-05-20 15:58:48.503,-2.205000,1.231000,21.615000,0.117600,0.290900,0.224100,-0.006018,-0.022310,0.334465,0.271000,0.327000,-10.216000
1779272928529236601,2026-05-20 15:58:48.528,-2.206000,1.222000,22.105000,0.122200,0.289800,0.217900,-0.006869,-0.016993,0.334114,0.240000,0.369000,-10.158000
1779272928554192361,2026-05-20 15:58:48.553,-2.209000,1.217000,22.593000,0.125900,0.287800,0.220200,-0.009041,-0.014553,0.335725,0.201000,0.317000,-10.194000
1779272928579354231,2026-05-20 15:58:48.578,-2.213000,1.212000,23.078000,0.127700,0.285700,0.198600,-0.011365,-0.020494,0.335114,0.270000,0.183000,-10.305000
1779272928604138601,2026-05-20 15:58:48.603,-2.219000,1.197000,23.570000,0.130500,0.283800,0.215100,-0.009207,-0.025473,0.337333,0.195000,0.307000,-10.221000
1779272928629160453,2026-05-20 15:58:48.628,-2.225000,1.181000,24.059000,0.130500,0.283800,0.218300,-0.014324,-0.022327,0.337575,0.198000,0.233000,-10.189000
1779272928654049657,2026-05-20 15:58:48.653,-2.230000,1.171000,24.551000,0.135100,0.283700,0.213100,-0.011709,-0.018237,0.340917,0.256000,0.278000,-10.159000
1779272928679154768,2026-05-20 15:58:48.678,-2.237000,1.165000,25.041000,0.138800,0.282700,0.219900,-0.015013,-0.020777,0.342020,0.186000,0.333000,-10.128000
1779272928704083749,2026-05-20 15:58:48.703,-2.247000,1.153000,25.534000,0.138800,0.282700,0.220900,-0.013366,-0.021628,0.340551,0.297000,0.504000,-10.121000
1779272928729125490,2026-05-20 15:58:48.728,-2.254000,1.138000,26.028000,0.143800,0.292600,0.221400,-0.014544,-0.021901,0.339734,0.228000,0.533000,-10.037000
1779272928754129083,2026-05-20 15:58:48.753,-2.259000,1.130000,26.524000,0.144500,0.278800,0.221600,-0.008833,-0.018947,0.337357,0.226000,0.404000,-10.050000
1779272928779074138,2026-05-20 15:58:48.778,-2.268000,1.127000,27.020000,0.147200,0.277700,0.198900,-0.012631,-0.016482,0.341906,0.295000,0.697000,-10.181000
1779272928804088194,2026-05-20 15:58:48.803,-2.273000,1.122000,27.514000,0.148100,0.275800,0.220700,-0.009813,-0.016310,0.338974,0.239000,0.486000,-10.062000
1779272928829127879,2026-05-20 15:58:48.828,-2.280000,1.117000,28.010000,0.152800,0.274700,0.215500,-0.007497,-0.017739,0.336558,0.255000,0.421000,-10.081000
1779272928855111490,2026-05-20 15:58:48.854,-2.281000,1.120000,28.506000,0.153700,0.275600,0.199300,-0.005763,-0.011741,0.336842,0.243000,0.348000,-10.212000
1779272928879159786,2026-05-20 15:58:48.878,-2.283000,1.129000,28.998000,0.159500,0.282400,0.218000,-0.004958,-0.004388,0.338301,0.193000,0.430000,-10.190000
1779272928904038842,2026-05-20 15:58:48.902,-2.282000,1.137000,29.486000,0.160200,0.275500,0.199600,-0.006375,-0.007947,0.335485,0.266000,0.220000,-10.133000
1779272928929064546,2026-05-20 15:58:48.928,-2.283000,1.145000,29.977000,0.161100,0.270500,0.193200,-0.004759,-0.010734,0.338151,0.168000,0.345000,-10.214000
1779272928954002935,2026-05-20 15:58:48.952,-2.278000,1.157000,30.465000,0.163000,0.273500,0.219300,-0.005917,-0.004537,0.336707,0.269000,0.118000,-10.229000
1779272928979075731,2026-05-20 15:58:48.978,-2.272000,1.170000,30.950000,0.167600,0.269400,0.201100,-0.001577,-0.002953,0.337809,0.157000,0.239000,-10.127000
1779272929004082268,2026-05-20 15:58:49.003,-2.265000,1.184000,31.435000,0.168400,0.265500,0.200100,-0.003628,-0.007079,0.334525,0.349000,0.292000,-10.199000
1779272929029192749,2026-05-20 15:58:49.028,-2.260000,1.196000,31.920000,0.173200,0.270300,0.201400,-0.002829,-0.006447,0.335419,0.213000,0.323000,-10.168000
1779272929054019194,2026-05-20 15:58:49.052,-2.252000,1.204000,32.402000,0.173900,0.263500,0.218900,-0.005752,-0.006305,0.334987,0.184000,0.331000,-10.232000
1779272929079003453,2026-05-20 15:58:49.077,-2.243000,1.213000,32.887000,0.177700,0.263300,0.202800,0.000239,-0.006750,0.332904,0.237000,0.346000,-10.165000
1779272929103994249,2026-05-20 15:58:49.102,-2.236000,1.222000,33.372000,0.177500,0.256400,0.198500,-0.004411,-0.009593,0.337641,0.248000,0.493000,-10.132000
1779272929129013712,2026-05-20 15:58:49.127,-2.230000,1.227000,33.860000,0.182300,0.262300,0.199800,-0.003493,-0.010718,0.336594,0.330000,0.432000,-10.136000
1779272929192335323,2026-05-20 15:58:49.191,-2.215000,1.230000,34.832000,0.184000,0.254400,0.202100,-0.000277,-0.013834,0.335409,0.206000,0.317000,-10.174000
1779272929204013694,2026-05-20 15:58:49.203,-2.211000,1.230000,35.315000,0.186800,0.253300,0.196800,-0.004145,-0.014650,0.337210,0.355000,0.549000,-10.157000
1779272929229210527,2026-05-20 15:58:49.228,-2.204000,1.227000,35.799000,0.188600,0.249300,0.199100,-0.001505,-0.015025,0.331714,0.223000,0.368000,-10.005000
1779272929253976268,2026-05-20 15:58:49.252,-2.202000,1.224000,36.285000,0.192400,0.253300,0.222100,-0.002937,-0.014109,0.330273,0.177000,0.428000,-10.128000
1779272929278965175,2026-05-20 15:58:49.277,-2.198000,1.223000,36.771000,0.196000,0.249200,0.197300,-0.005210,-0.013887,0.332485,0.289000,0.267000,-10.273000
1779272929303947582,2026-05-20 15:58:49.302,-2.198000,1.220000,37.257000,0.197900,0.250100,0.198500,-0.005048,-0.013281,0.333739,0.265000,0.246000,-10.154000
1779272929328944601,2026-05-20 15:58:49.327,-2.198000,1.216000,37.740000,0.198700,0.245200,0.200800,-0.008773,-0.016402,0.329753,0.297000,0.127000,-10.184000
1779272929353952434,2026-05-20 15:58:49.352,-2.201000,1.213000,38.227000,0.200600,0.247100,0.199800,-0.009579,-0.016106,0.336610,0.184000,0.224000,-10.226000
1779272929378931842,2026-05-20 15:58:49.377,-2.204000,1.211000,38.707000,0.203400,0.244100,0.195600,-0.015847,-0.013583,0.338283,0.240000,0.181000,-10.147000
1779272929403953675,2026-05-20 15:58:49.402,-2.209000,1.209000,39.193000,0.206100,0.243100,0.203300,-0.009795,-0.014724,0.334856,0.238000,0.427000,-10.104000
1779272929428923045,2026-05-20 15:58:49.427,-2.215000,1.207000,39.678000,0.207900,0.238200,0.202400,-0.015669,-0.015843,0.335062,0.202000,0.493000,-10.066000
1779272929453992193,2026-05-20 15:58:49.452,-2.222000,1.205000,40.163000,0.209700,0.238100,0.200300,-0.012831,-0.013932,0.334703,0.293000,0.440000,-10.181000
1779272929478969916,2026-05-20 15:58:49.477,-2.230000,1.204000,40.643000,0.213400,0.234100,0.202700,-0.012673,-0.012975,0.332396,0.164000,0.526000,-10.043000
1779272929503959860,2026-05-20 15:58:49.502,-2.236000,1.206000,41.129000,0.214200,0.231100,0.199500,-0.008595,-0.014066,0.331520,0.287000,0.568000,-10.060000
1779272929528939712,2026-05-20 15:58:49.527,-2.246000,1.206000,41.612000,0.215200,0.234100,0.201700,-0.012402,-0.013177,0.331135,0.271000,0.578000,-10.275000
1779272929554005471,2026-05-20 15:58:49.552,-2.252000,1.205000,42.097000,0.218900,0.232100,0.204100,-0.010247,-0.011788,0.332081,0.214000,0.314000,-10.095000
1779272929578975934,2026-05-20 15:58:49.577,-2.261000,1.207000,42.579000,0.221700,0.231000,0.202100,-0.009674,-0.011414,0.331204,0.221000,0.381000,-10.131000
1779272929603911582,2026-05-20 15:58:49.602,-2.266000,1.211000,43.064000,0.221700,0.233000,0.201000,-0.010908,-0.011208,0.333991,0.309000,0.224000,-10.284000
1779272929628862897,2026-05-20 15:58:49.627,-2.274000,1.213000,43.549000,0.227300,0.229900,0.201300,-0.010507,-0.010263,0.334017,0.252000,0.248000,-10.216000
1779272929653982360,2026-05-20 15:58:49.652,-2.276000,1.214000,44.033000,0.226200,0.225000,0.201300,-0.010761,-0.013293,0.335185,0.124000,0.133000,-10.109000
1779272929678890582,2026-05-20 15:58:49.677,-2.281000,1.220000,44.517000,0.227200,0.226000,0.213300,-0.009352,-0.009264,0.337017,0.272000,0.370000,-10.251000
1779272929703919490,2026-05-20 15:58:49.702,-2.283000,1.229000,44.997000,0.229000,0.225000,0.199300,-0.014149,-0.006566,0.337245,0.258000,0.270000,-10.108000
1779272929728923860,2026-05-20 15:58:49.727,-2.285000,1.235000,45.481000,0.232700,0.221000,0.198400,-0.008156,-0.008240,0.332661,0.194000,0.414000,-10.061000
1779272929753992490,2026-05-20 15:58:49.752,-2.285000,1.241000,45.965000,0.235400,0.217000,0.199700,-0.009143,-0.010471,0.336570,0.218000,0.472000,-10.137000
1779272929778861712,2026-05-20 15:58:49.777,-2.283000,1.249000,46.449000,0.234000,0.221500,0.198600,-0.003231,-0.008313,0.335802,0.279000,0.559000,-10.110000
1779272929803928860,2026-05-20 15:58:49.802,-2.280000,1.257000,46.932000,0.234800,0.215600,0.201900,-0.008098,-0.004272,0.332406,0.315000,0.571000,-10.030000
1779272929828820304,2026-05-20 15:58:49.827,-2.274000,1.267000,47.415000,0.236600,0.210600,0.192300,-0.000500,-0.007876,0.327871,0.194000,0.431000,-10.088000
1779272929853927415,2026-05-20 15:58:49.852,-2.269000,1.275000,47.899000,0.239300,0.208600,0.200100,-0.001414,-0.008894,0.332639,0.212000,0.544000,-10.222000
1779272929878835915,2026-05-20 15:58:49.877,-2.260000,1.284000,48.382000,0.242000,0.203700,0.200200,0.001343,-0.005981,0.332049,0.282000,0.224000,-10.093000
1779272929903894730,2026-05-20 15:58:49.902,-2.254000,1.292000,48.861000,0.242900,0.202600,0.197000,-0.001115,-0.007304,0.330512,0.212000,0.409000,-10.131000
1779272929928868341,2026-05-20 15:58:49.927,-2.244000,1.304000,49.342000,0.245700,0.201600,0.196100,-0.001203,-0.006499,0.331827,0.252000,0.160000,-10.225000
1779272929953976860,2026-05-20 15:58:49.952,-2.237000,1.312000,49.822000,0.247800,0.211400,0.197200,-0.002393,-0.006005,0.334162,0.226000,0.227000,-10.215000
1779272929978930693,2026-05-20 15:58:49.977,-2.227000,1.321000,50.303000,0.248500,0.201600,0.196300,-0.004945,-0.007541,0.336091,0.258000,0.004000,-10.125000
1779272930003870878,2026-05-20 15:58:50.002,-2.220000,1.331000,50.787000,0.253100,0.198500,0.197600,-0.001520,-0.006887,0.335971,0.261000,0.336000,-10.137000
1779272930028873397,2026-05-20 15:58:50.027,-2.212000,1.341000,51.270000,0.252100,0.195600,0.192200,-0.008606,-0.004921,0.334679,0.275000,0.276000,-10.150000
1779272930053929489,2026-05-20 15:58:50.052,-2.207000,1.350000,51.755000,0.254900,0.195500,0.196600,-0.004376,-0.005288,0.336153,0.226000,0.452000,-10.148000
1779272930078853378,2026-05-20 15:58:50.077,-2.202000,1.358000,52.239000,0.254800,0.194500,0.192300,-0.008104,-0.010283,0.336541,0.316000,0.416000,-10.096000
1779272930103826656,2026-05-20 15:58:50.102,-2.198000,1.367000,52.721000,0.257500,0.190600,0.199000,-0.004516,-0.007178,0.335054,0.300000,0.474000,-10.082000
1779272930128763415,2026-05-20 15:58:50.127,-2.198000,1.374000,53.206000,0.260400,0.192500,0.199100,-0.010768,-0.007026,0.333593,0.265000,0.556000,-10.180000
1779272930192152656,2026-05-20 15:58:50.191,-2.204000,1.385000,54.180000,0.262100,0.184600,0.198200,-0.009154,-0.010690,0.331224,0.309000,0.541000,-10.225000
1779272930203891563,2026-05-20 15:58:50.202,-2.205000,1.389000,54.662000,0.263800,0.178700,0.198300,-0.008493,-0.009411,0.334057,0.313000,0.212000,-10.239000
1779272930228883452,2026-05-20 15:58:50.227,-2.213000,1.389000,55.146000,0.266700,0.183500,0.197400,-0.012596,-0.012074,0.335338,0.210000,0.262000,-10.136000
1779272930253760860,2026-05-20 15:58:50.252,-2.218000,1.389000,55.630000,0.267700,0.185500,0.200600,-0.012918,-0.014968,0.333470,0.343000,0.189000,-10.238000
1779272930278810304,2026-05-20 15:58:50.277,-2.228000,1.386000,56.115000,0.270200,0.174600,0.202000,-0.014444,-0.014629,0.335986,0.344000,0.273000,-10.260000
1779272930303894249,2026-05-20 15:58:50.302,-2.233000,1.382000,56.600000,0.270100,0.169700,0.198700,-0.014012,-0.016099,0.337993,0.282000,-0.012000,-10.117000
1779272930328751452,2026-05-20 15:58:50.327,-2.242000,1.376000,57.084000,0.272000,0.169700,0.198800,-0.013102,-0.018344,0.337617,0.300000,0.406000,-10.153000
1779272930353700323,2026-05-20 15:58:50.352,-2.249000,1.370000,57.568000,0.273800,0.166700,0.197900,-0.017799,-0.019312,0.337431,0.333000,0.266000,-10.144000
1779272930378881415,2026-05-20 15:58:50.377,-2.255000,1.360000,58.052000,0.273700,0.164700,0.194600,-0.010815,-0.018363,0.334743,0.248000,0.415000,-10.054000
1779272930403809137,2026-05-20 15:58:50.402,-2.259000,1.350000,58.537000,0.276500,0.164700,0.196900,-0.013610,-0.022331,0.334408,0.241000,0.510000,-10.181000
1779272930428718137,2026-05-20 15:58:50.427,-2.262000,1.342000,59.021000,0.281100,0.160700,0.198300,-0.006055,-0.019235,0.333428,0.250000,0.579000,-10.119000
1779272930453676915,2026-05-20 15:58:50.452,-2.263000,1.333000,59.502000,0.282000,0.162600,0.201600,-0.011429,-0.019402,0.333511,0.278000,0.479000,-10.170000
1779272930478879174,2026-05-20 15:58:50.477,-2.261000,1.323000,59.986000,0.284000,0.166500,0.201600,-0.002150,-0.020658,0.329615,0.250000,0.380000,-10.103000
1779272930503800248,2026-05-20 15:58:50.502,-2.263000,1.313000,60.461000,0.282800,0.154700,0.198400,-0.006668,-0.020522,0.328934,0.282000,0.510000,-10.170000
1779272930528764897,2026-05-20 15:58:50.527,-2.259000,1.305000,60.940000,0.283700,0.153700,0.198500,-0.004378,-0.017746,0.330066,0.210000,0.307000,-10.258000
1779272930553733341,2026-05-20 15:58:50.552,-2.259000,1.297000,61.420000,0.285700,0.159600,0.199600,-0.004943,-0.016700,0.333816,0.201000,0.276000,-10.129000
1779272930578857693,2026-05-20 15:58:50.577,-2.253000,1.291000,61.898000,0.287200,0.144800,0.204200,-0.003821,-0.017980,0.333660,0.312000,0.152000,-10.159000
1779272930603806452,2026-05-20 15:58:50.602,-2.252000,1.287000,62.377000,0.286300,0.144900,0.200900,-0.006782,-0.014619,0.333741,0.202000,0.325000,-10.203000
1779272930628728508,2026-05-20 15:58:50.627,-2.247000,1.285000,62.856000,0.289900,0.140900,0.202200,-0.009316,-0.012813,0.334755,0.217000,0.077000,-10.104000
1779272930653850915,2026-05-20 15:58:50.652,-2.247000,1.285000,63.337000,0.291800,0.139800,0.202300,-0.006621,-0.013173,0.332950,0.284000,0.428000,-10.159000
1779272930678802804,2026-05-20 15:58:50.677,-2.245000,1.287000,63.813000,0.292600,0.136900,0.201300,-0.010946,-0.012920,0.336745,0.265000,0.358000,-10.134000
1779272930703777396,2026-05-20 15:58:50.702,-2.244000,1.288000,64.290000,0.294600,0.140800,0.200300,-0.007919,-0.011030,0.332839,0.263000,0.432000,-10.091000
1779272930728722989,2026-05-20 15:58:50.727,-2.244000,1.290000,64.765000,0.296200,0.130900,0.198300,-0.011076,-0.012701,0.332047,0.249000,0.421000,-10.125000
1779272930753742600,2026-05-20 15:58:50.752,-2.245000,1.294000,65.243000,0.293400,0.130900,0.195900,-0.003276,-0.011298,0.331582,0.285000,0.586000,-10.135000
1779272930778909952,2026-05-20 15:58:50.777,-2.248000,1.297000,65.723000,0.296200,0.130900,0.197200,-0.012577,-0.011190,0.331920,0.308000,0.412000,-10.200000
1779272930803755248,2026-05-20 15:58:50.802,-2.250000,1.298000,66.199000,0.295400,0.125800,0.193000,-0.007170,-0.011976,0.327972,0.161000,0.386000,-10.227000
1779272930828656489,2026-05-20 15:58:50.827,-2.257000,1.301000,66.681000,0.298300,0.127700,0.199600,-0.010243,-0.012137,0.333806,0.233000,0.375000,-10.140000
1779272930854105137,2026-05-20 15:58:50.852,-2.262000,1.303000,67.152000,0.299900,0.116900,0.194400,-0.011023,-0.011114,0.328290,0.317000,0.239000,-10.175000
1779272930878841841,2026-05-20 15:58:50.877,-2.270000,1.303000,67.625000,0.300900,0.119800,0.192200,-0.011346,-0.011682,0.321248,0.205000,0.305000,-10.162000
1779272930903725119,2026-05-20 15:58:50.902,-2.274000,1.302000,68.082000,0.302000,0.128600,0.195500,-0.012624,-0.013236,0.318036,0.250000,0.101000,-10.098000
1779272930928690915,2026-05-20 15:58:50.927,-2.281000,1.305000,68.534000,0.301700,0.114900,0.197700,-0.009743,-0.010565,0.314582,0.260000,0.277000,-10.265000
1779272930953638896,2026-05-20 15:58:50.952,-2.285000,1.308000,68.974000,0.302700,0.117800,0.196700,-0.012625,-0.009355,0.308336,0.338000,0.162000,-10.213000
1779272930978791007,2026-05-20 15:58:50.977,-2.287000,1.308000,69.406000,0.303400,0.109000,0.198900,-0.007138,-0.011668,0.301091,0.270000,0.375000,-10.091000
1779272931003890470,2026-05-20 15:58:51.002,-2.286000,1.306000,69.831000,0.307200,0.111800,0.198000,-0.008452,-0.013909,0.295904,0.250000,0.381000,-10.175000
1779272931029362915,2026-05-20 15:58:51.027,-2.283000,1.308000,70.249000,0.306100,0.106000,0.199100,-0.000473,-0.011125,0.287601,0.248000,0.457000,-10.176000
1779272931053809563,2026-05-20 15:58:51.052,-2.279000,1.311000,70.659000,0.306100,0.103000,0.194800,-0.003674,-0.008786,0.283854,0.349000,0.466000,-10.148000
1779272931078896785,2026-05-20 15:58:51.077,-2.271000,1.309000,71.062000,0.307900,0.101000,0.196000,0.000728,-0.013036,0.278741,0.285000,0.370000,-10.166000
1779272931103755081,2026-05-20 15:58:51.102,-2.263000,1.304000,71.459000,0.307900,0.100000,0.197100,-0.000244,-0.015477,0.273914,0.245000,0.339000,-10.163000
1779272931128629600,2026-05-20 15:58:51.127,-2.251000,1.299000,71.848000,0.311500,0.094100,0.194100,0.002613,-0.014333,0.270562,0.313000,0.302000,-10.146000
1779272931192096063,2026-05-20 15:58:51.191,-2.229000,1.290000,72.617000,0.309600,0.093100,0.195100,0.000344,-0.016435,0.263785,0.267000,0.339000,-10.164000
1779272931203658785,2026-05-20 15:58:51.202,-2.220000,1.282000,72.989000,0.312300,0.092100,0.194100,0.000717,-0.016480,0.261143,0.241000,0.368000,-10.163000
1779272931228719915,2026-05-20 15:58:51.227,-2.207000,1.274000,73.361000,0.312300,0.088200,0.194200,0.000926,-0.015322,0.258625,0.326000,0.231000,-10.182000
1779272931253740915,2026-05-20 15:58:51.252,-2.197000,1.267000,73.721000,0.312300,0.088200,0.194200,0.000917,-0.013983,0.250699,0.316000,0.356000,-10.200000
1779272931278752711,2026-05-20 15:58:51.277,-2.189000,1.261000,74.079000,0.316100,0.094000,0.195400,-0.002194,-0.013277,0.247392,0.238000,0.394000,-10.140000
1779272931303739304,2026-05-20 15:58:51.302,-2.184000,1.263000,74.428000,0.312200,0.084200,0.191000,0.000024,-0.004084,0.237660,0.289000,0.397000,-10.108000
1779272931328626341,2026-05-20 15:58:51.327,-2.176000,1.281000,74.762000,0.313000,0.081300,0.193200,-0.003256,0.005169,0.234705,0.351000,0.272000,-10.155000
1779272931353717341,2026-05-20 15:58:51.352,-2.170000,1.315000,75.089000,0.314100,0.089100,0.197500,-0.001500,0.019588,0.226566,0.366000,0.285000,-10.128000
1779272931378715489,2026-05-20 15:58:51.377,-2.165000,1.367000,75.407000,0.315700,0.075300,0.193400,-0.005648,0.033662,0.226049,0.314000,0.360000,-10.104000
1779272931403756600,2026-05-20 15:58:51.402,-2.166000,1.443000,75.726000,0.313900,0.077300,0.194300,-0.010203,0.048776,0.224778,0.483000,0.268000,-10.162000
1779272931428570637,2026-05-20 15:58:51.427,-2.171000,1.537000,76.037000,0.315700,0.076300,0.199900,-0.007424,0.060517,0.216514,0.406000,0.455000,-10.140000
1779272931453531563,2026-05-20 15:58:51.452,-2.176000,1.640000,76.339000,0.313800,0.072400,0.197600,-0.011443,0.063899,0.212888,0.488000,0.443000,-10.155000
1779272931478676822,2026-05-20 15:58:51.477,-2.183000,1.747000,76.635000,0.314700,0.072400,0.194400,-0.014186,0.064855,0.211230,0.569000,0.255000,-10.066000
1779272931503692137,2026-05-20 15:58:51.502,-2.195000,1.862000,76.926000,0.314600,0.068500,0.196600,-0.015078,0.076304,0.202457,0.635000,0.344000,-10.162000
1779272931528719933,2026-05-20 15:58:51.527,-2.210000,1.994000,77.203000,0.315500,0.066500,0.197800,-0.014909,0.091858,0.193310,0.675000,0.575000,-10.141000
1779272931553652026,2026-05-20 15:58:51.552,-2.223000,2.144000,77.471000,0.314500,0.065600,0.195600,-0.018668,0.101147,0.189756,0.810000,0.451000,-10.047000
1779272931578673840,2026-05-20 15:58:51.577,-2.240000,2.316000,77.726000,0.313600,0.064600,0.199900,-0.019815,0.117236,0.179337,0.911000,0.396000,-10.074000
1779272931603687063,2026-05-20 15:58:51.602,-2.258000,2.524000,77.964000,0.312600,0.062700,0.195500,-0.016687,0.151356,0.164376,0.824000,0.360000,-10.173000
1779272931628640785,2026-05-20 15:58:51.627,-2.273000,2.771000,78.172000,0.314400,0.061700,0.201000,-0.019163,0.177147,0.146678,1.378000,0.411000,-10.006000
1779272931653576766,2026-05-20 15:58:51.652,-2.285000,3.052000,78.354000,0.309800,0.062700,0.202900,-0.012694,0.199640,0.129245,1.130000,0.582000,-9.906000
1779272931678609766,2026-05-20 15:58:51.677,-2.297000,3.357000,78.508000,0.310700,0.060800,0.206200,-0.014247,0.213915,0.113115,1.210000,0.439000,-10.253000
1779272931703794988,2026-05-20 15:58:51.702,-2.307000,3.678000,78.649000,0.309700,0.058800,0.208400,-0.013385,0.225867,0.104313,1.778000,0.391000,-10.217000
1779272931728568600,2026-05-20 15:58:51.727,-2.315000,4.003000,78.769000,0.308700,0.055900,0.212700,-0.006482,0.226143,0.089805,1.322000,0.392000,-10.020000
1779272931753498229,2026-05-20 15:58:51.752,-2.320000,4.323000,78.874000,0.308800,0.057900,0.208300,-0.007265,0.217694,0.076131,1.969000,0.378000,-10.277000
1779272931778655470,2026-05-20 15:58:51.777,-2.321000,4.623000,78.961000,0.305000,0.056000,0.216800,-0.003774,0.205000,0.069656,1.627000,0.381000,-10.160000
1779272931803667914,2026-05-20 15:58:51.802,-2.319000,4.894000,79.041000,0.304000,0.054000,0.211400,-0.003774,0.179815,0.061583,1.804000,0.399000,-10.173000
1779272931828550025,2026-05-20 15:58:51.827,-2.313000,5.134000,79.101000,0.301300,0.056100,0.215600,0.003466,0.155925,0.050303,2.007000,0.398000,-10.169000
1779272931854820414,2026-05-20 15:58:51.853,-2.304000,5.333000,79.146000,0.302200,0.054100,0.216700,0.003439,0.123848,0.033118,1.941000,0.544000,-10.095000
1779272931878624525,2026-05-20 15:58:51.877,-2.294000,5.481000,79.182000,0.301400,0.059000,0.216600,0.007823,0.093079,0.025292,2.317000,0.421000,-10.121000
1779272931903643692,2026-05-20 15:58:51.902,-2.281000,5.576000,79.203000,0.300300,0.054100,0.216600,0.011686,0.055733,0.012674,1.835000,0.456000,-10.048000
1779272931928548155,2026-05-20 15:58:51.927,-2.263000,5.622000,79.208000,0.299400,0.055100,0.216500,0.014182,0.018525,0.000580,2.087000,0.463000,-10.204000
1779272931953465229,2026-05-20 15:58:51.952,-2.245000,5.616000,79.197000,0.301300,0.057000,0.216600,0.015344,-0.018132,-0.012034,2.359000,0.428000,-10.077000
1779272931978524562,2026-05-20 15:58:51.977,-2.228000,5.557000,79.166000,0.301300,0.055100,0.215600,0.015351,-0.050681,-0.026469,1.728000,0.384000,-10.014000
1779272932003552710,2026-05-20 15:58:52.002,-2.210000,5.453000,79.116000,0.301400,0.060000,0.211200,0.016047,-0.083289,-0.043606,2.046000,0.443000,-10.118000
1779272932028566803,2026-05-20 15:58:52.027,-2.190000,5.312000,79.045000,0.302200,0.056000,0.210200,0.018775,-0.108136,-0.057695,2.423000,0.289000,-9.992000
1779272932053574525,2026-05-20 15:58:52.052,-2.172000,5.135000,78.959000,0.304400,0.068700,0.212400,0.018269,-0.128195,-0.069116,1.862000,0.320000,-9.926000
1779272932078532785,2026-05-20 15:58:52.077,-2.156000,4.926000,78.853000,0.305200,0.061900,0.213500,0.018208,-0.149677,-0.079662,1.117000,0.456000,-10.212000
1779272932103486359,2026-05-20 15:58:52.102,-2.141000,4.696000,78.729000,0.303300,0.060900,0.211300,0.015753,-0.168025,-0.093076,1.544000,0.348000,-10.102000
1779272932128503470,2026-05-20 15:58:52.127,-2.127000,4.448000,78.595000,0.304100,0.057900,0.207000,0.016062,-0.178368,-0.099434,2.289000,0.201000,-9.982000
1779272932191838321,2026-05-20 15:58:52.190,-2.106000,3.911000,78.307000,0.307900,0.059800,0.207200,0.014046,-0.186519,-0.112284,0.749000,0.423000,-10.188000
1779272932203521914,2026-05-20 15:58:52.202,-2.100000,3.639000,78.154000,0.307900,0.061800,0.200700,0.008040,-0.185226,-0.112398,1.476000,0.383000,-10.124000
1779272932228563007,2026-05-20 15:58:52.227,-2.098000,3.378000,78.000000,0.310800,0.062700,0.204100,0.005991,-0.172499,-0.110213,1.205000,0.197000,-9.852000
1779272932253435470,2026-05-20 15:58:52.252,-2.096000,3.136000,77.839000,0.310800,0.064700,0.198600,0.006895,-0.157004,-0.118471,0.839000,0.238000,-10.185000
1779272932278494858,2026-05-20 15:58:52.277,-2.096000,2.924000,77.681000,0.309800,0.063700,0.201800,0.003998,-0.137953,-0.115599,1.221000,0.479000,-10.076000
1779272932303499896,2026-05-20 15:58:52.302,-2.100000,2.745000,77.525000,0.313800,0.074400,0.203000,0.002099,-0.110648,-0.110637,0.656000,0.288000,-9.815000
1779272932328542470,2026-05-20 15:58:52.327,-2.105000,2.604000,77.366000,0.312800,0.070500,0.197600,-0.000636,-0.085351,-0.112818,0.885000,0.455000,-10.149000
1779272932353398173,2026-05-20 15:58:52.352,-2.110000,2.504000,77.206000,0.312700,0.066600,0.199800,0.002758,-0.055633,-0.109929,1.284000,0.315000,-9.956000
1779272932378479747,2026-05-20 15:58:52.377,-2.116000,2.444000,77.053000,0.314600,0.070500,0.197700,0.001288,-0.023907,-0.109369,0.486000,0.154000,-9.923000
1779272932403512229,2026-05-20 15:58:52.402,-2.123000,2.425000,76.900000,0.311900,0.072500,0.203000,-0.002552,0.001313,-0.107930,0.769000,0.365000,-10.412000
1779272932428572321,2026-05-20 15:58:52.427,-2.128000,2.451000,76.748000,0.313700,0.071500,0.199800,0.003558,0.032627,-0.104453,1.064000,0.162000,-10.047000
1779272932453390766,2026-05-20 15:58:52.452,-2.134000,2.522000,76.592000,0.311900,0.072500,0.198600,0.001388,0.064776,-0.105104,0.526000,0.114000,-9.860000
1779272932478495395,2026-05-20 15:58:52.477,-2.140000,2.632000,76.439000,0.311900,0.074400,0.196400,-0.001657,0.090978,-0.102786,1.087000,0.254000,-10.302000
1779272932503496544,2026-05-20 15:58:52.502,-2.144000,2.777000,76.287000,0.309200,0.075500,0.198500,0.003770,0.113425,-0.097479,1.209000,0.241000,-9.973000
1779272932528503914,2026-05-20 15:58:52.527,-2.145000,2.951000,76.132000,0.311000,0.073500,0.204000,0.003673,0.132784,-0.098989,0.651000,0.275000,-10.075000
1779272932553428358,2026-05-20 15:58:52.552,-2.144000,3.146000,75.979000,0.307400,0.079500,0.205900,0.004584,0.144920,-0.097405,1.016000,0.427000,-10.410000
1779272932578389099,2026-05-20 15:58:52.577,-2.142000,3.358000,75.835000,0.306400,0.075600,0.203700,0.009037,0.153594,-0.090401,1.511000,0.248000,-10.034000
1779272932603414043,2026-05-20 15:58:52.602,-2.141000,3.584000,75.686000,0.303600,0.077600,0.202500,0.011271,0.163635,-0.094450,1.111000,0.440000,-9.876000
1779272932629475043,2026-05-20 15:58:52.628,-2.135000,3.813000,75.543000,0.306400,0.077500,0.208000,0.008239,0.166076,-0.090562,1.082000,0.221000,-10.363000
1779272932653367488,2026-05-20 15:58:52.652,-2.133000,4.041000,75.406000,0.303700,0.079500,0.202500,0.007196,0.160344,-0.086605,1.549000,0.336000,-10.148000
1779272932679443895,2026-05-20 15:58:52.678,-2.129000,4.266000,75.274000,0.300900,0.078600,0.209900,0.009452,0.155150,-0.084345,1.930000,0.241000,-9.844000
1779272932704391617,2026-05-20 15:58:52.703,-2.122000,4.473000,75.144000,0.300900,0.079600,0.212100,0.011780,0.143791,-0.080345,1.181000,0.217000,-10.378000
1779272932729472488,2026-05-20 15:58:52.728,-2.115000,4.656000,75.020000,0.301000,0.082500,0.211000,0.009733,0.120395,-0.079711,1.298000,0.394000,-10.215000
1779272932754441803,2026-05-20 15:58:52.753,-2.109000,4.806000,74.903000,0.299100,0.082600,0.209800,0.011535,0.091462,-0.074500,2.123000,0.246000,-9.910000
1779272932779409154,2026-05-20 15:58:52.778,-2.103000,4.918000,74.790000,0.298200,0.081600,0.217300,0.011884,0.071183,-0.072230,1.460000,0.344000,-10.091000
1779272932804381969,2026-05-20 15:58:52.803,-2.095000,4.989000,74.681000,0.296400,0.085600,0.212900,0.009915,0.041609,-0.073051,1.409000,0.382000,-10.205000
1779272932831204025,2026-05-20 15:58:52.828,-2.088000,5.020000,74.580000,0.297200,0.082600,0.212900,0.009943,0.010205,-0.067464,1.797000,0.366000,-10.010000
1779272932853399488,2026-05-20 15:58:52.852,-2.084000,5.009000,74.484000,0.296300,0.079700,0.217200,0.009438,-0.016882,-0.067149,1.406000,0.207000,-10.115000
1779272932879406784,2026-05-20 15:58:52.878,-2.077000,4.954000,74.390000,0.298100,0.079700,0.215200,0.008693,-0.048925,-0.065113,1.741000,0.323000,-10.223000
1779272932903347006,2026-05-20 15:58:52.902,-2.071000,4.855000,74.302000,0.296400,0.087500,0.215000,0.009909,-0.081504,-0.063859,1.329000,0.256000,-9.926000
1779272932929307062,2026-05-20 15:58:52.928,-2.067000,4.718000,74.216000,0.299200,0.087500,0.213000,0.005557,-0.104075,-0.065986,1.311000,0.205000,-10.024000
1779272932953428191,2026-05-20 15:58:52.952,-2.064000,4.552000,74.129000,0.299200,0.084500,0.211900,0.006526,-0.117288,-0.061689,1.434000,0.432000,-10.213000
1779272932979399932,2026-05-20 15:58:52.978,-2.063000,4.364000,74.043000,0.302000,0.088400,0.212100,0.005989,-0.135518,-0.062407,0.828000,0.179000,-10.085000
1779272933003384488,2026-05-20 15:58:53.002,-2.064000,4.156000,73.960000,0.299200,0.087500,0.209800,0.000587,-0.152309,-0.059509,1.392000,0.316000,-10.144000
1779272933029350414,2026-05-20 15:58:53.028,-2.066000,3.927000,73.878000,0.304800,0.087400,0.207900,0.003633,-0.160522,-0.061521,0.865000,0.248000,-10.046000
1779272933053424395,2026-05-20 15:58:53.052,-2.068000,3.681000,73.800000,0.303000,0.091300,0.206700,0.001189,-0.171879,-0.059131,0.883000,0.289000,-10.031000
1779272933079341914,2026-05-20 15:58:53.078,-2.070000,3.433000,73.722000,0.304800,0.087400,0.207900,0.000586,-0.172628,-0.059761,0.616000,0.343000,-10.101000
1779272933103358099,2026-05-20 15:58:53.102,-2.075000,3.194000,73.647000,0.303800,0.085400,0.204600,-0.002917,-0.160262,-0.056598,0.832000,0.568000,-10.044000
1779272933129439691,2026-05-20 15:58:53.128,-2.082000,2.974000,73.570000,0.305700,0.084400,0.201400,-0.001433,-0.145219,-0.057533,0.338000,0.340000,-10.075000
1779272933191883376,2026-05-20 15:58:53.190,-2.091000,2.600000,73.426000,0.306700,0.087300,0.201500,0.003034,-0.111777,-0.055674,0.210000,0.383000,-10.263000
1779272933203349080,2026-05-20 15:58:53.202,-2.095000,2.454000,73.355000,0.307600,0.090200,0.201500,-0.000757,-0.089008,-0.052991,0.377000,0.392000,-10.225000
1779272933229278136,2026-05-20 15:58:53.228,-2.100000,2.347000,73.285000,0.309600,0.094100,0.199400,-0.001167,-0.061662,-0.050811,0.165000,0.047000,-10.238000
1779272933253377580,2026-05-20 15:58:53.252,-2.105000,2.282000,73.215000,0.309600,0.096100,0.199400,-0.002896,-0.032649,-0.048865,0.361000,0.161000,-10.256000
1779272933279302599,2026-05-20 15:58:53.278,-2.108000,2.250000,73.148000,0.305800,0.090300,0.199200,-0.001047,-0.010317,-0.045617,0.036000,0.146000,-10.232000
1779272933303301210,2026-05-20 15:58:53.302,-2.110000,2.250000,73.085000,0.307700,0.091200,0.201500,-0.002171,0.007145,-0.041672,0.484000,0.365000,-10.227000
1779272933329282784,2026-05-20 15:58:53.328,-2.110000,2.276000,73.022000,0.307700,0.093200,0.201500,-0.000231,0.027427,-0.040186,0.121000,0.333000,-10.177000
1779272933354384636,2026-05-20 15:58:53.353,-2.109000,2.330000,72.962000,0.308600,0.090200,0.200500,0.001357,0.049417,-0.040812,0.475000,0.382000,-10.063000
1779272933379328099,2026-05-20 15:58:53.378,-2.109000,2.413000,72.902000,0.308700,0.094100,0.200400,-0.000844,0.067564,-0.041240,0.143000,0.519000,-10.105000
1779272933403326987,2026-05-20 15:58:53.402,-2.110000,2.524000,72.843000,0.305800,0.089300,0.201400,0.001100,0.081892,-0.039263,0.559000,0.630000,-10.147000
1779272933429191858,2026-05-20 15:58:53.428,-2.111000,2.645000,72.783000,0.307000,0.102000,0.199200,0.000932,0.088659,-0.039454,0.585000,0.436000,-10.112000
1779272933454411580,2026-05-20 15:58:53.453,-2.108000,2.765000,72.723000,0.304100,0.096200,0.203400,0.006535,0.085014,-0.041262,0.551000,0.403000,-10.133000
1779272933479395210,2026-05-20 15:58:53.478,-2.108000,2.886000,72.662000,0.304900,0.092300,0.202400,0.002870,0.084292,-0.041690,0.608000,0.391000,-10.234000
1779272933504293858,2026-05-20 15:58:53.503,-2.106000,3.013000,72.596000,0.303900,0.090300,0.201300,0.003108,0.092433,-0.040174,0.544000,0.288000,-10.171000
1779272933529216784,2026-05-20 15:58:53.528,-2.109000,3.139000,72.533000,0.303000,0.090300,0.201300,-0.000252,0.086730,-0.041539,0.700000,0.256000,-10.198000
1779272933554343635,2026-05-20 15:58:53.553,-2.112000,3.252000,72.462000,0.302200,0.095200,0.202300,0.002625,0.074446,-0.042355,0.694000,0.197000,-10.245000
1779272933579431117,2026-05-20 15:58:53.578,-2.113000,3.339000,72.399000,0.303100,0.096200,0.204500,-0.000352,0.054567,-0.042337,0.856000,0.231000,-10.266000
1779272933604288413,2026-05-20 15:58:53.603,-2.111000,3.399000,72.332000,0.301300,0.098200,0.206500,0.002913,0.037057,-0.041978,0.663000,0.156000,-10.127000
1779272933629187135,2026-05-20 15:58:53.628,-2.110000,3.442000,72.267000,0.299400,0.095300,0.203200,0.001133,0.026514,-0.043019,0.972000,0.261000,-10.058000
1779272933654370987,2026-05-20 15:58:53.653,-2.113000,3.471000,72.204000,0.301200,0.093300,0.207600,-0.002628,0.019004,-0.044616,0.618000,0.431000,-10.082000
1779272933679394284,2026-05-20 15:58:53.678,-2.116000,3.484000,72.135000,0.301300,0.098200,0.205400,0.000749,0.004972,-0.043914,0.925000,0.463000,-10.070000
1779272933704228413,2026-05-20 15:58:53.703,-2.119000,3.473000,72.071000,0.300300,0.094300,0.202200,-0.000643,-0.015958,-0.045117,0.936000,0.403000,-10.098000
1779272933729292469,2026-05-20 15:58:53.728,-2.118000,3.428000,72.008000,0.300300,0.095300,0.205400,0.005860,-0.037536,-0.046134,0.687000,0.452000,-10.115000
1779272933754350654,2026-05-20 15:58:53.753,-2.117000,3.358000,71.948000,0.302100,0.093300,0.204400,0.003113,-0.054105,-0.046163,0.934000,0.477000,-10.124000
1779272933779263172,2026-05-20 15:58:53.778,-2.116000,3.274000,71.884000,0.300300,0.094300,0.205400,0.005877,-0.060506,-0.046793,0.504000,0.270000,-10.109000
1779272933804269172,2026-05-20 15:58:53.803,-2.116000,3.186000,71.823000,0.302200,0.095300,0.206600,0.001961,-0.059079,-0.044760,0.735000,0.261000,-10.178000
1779272933829159858,2026-05-20 15:58:53.828,-2.120000,3.095000,71.762000,0.304100,0.097200,0.204500,-0.001064,-0.065258,-0.046263,0.606000,0.327000,-10.214000
1779272933854331672,2026-05-20 15:58:53.853,-2.123000,2.997000,71.704000,0.303200,0.097200,0.205500,0.003668,-0.071259,-0.042396,0.475000,0.161000,-10.271000
1779272933879246283,2026-05-20 15:58:53.878,-2.124000,2.883000,71.642000,0.302200,0.098200,0.204400,-0.001871,-0.080896,-0.042868,0.768000,0.089000,-10.187000
1779272933904276469,2026-05-20 15:58:53.903,-2.126000,2.762000,71.585000,0.303300,0.102100,0.203300,0.000348,-0.081409,-0.044809,0.350000,0.294000,-10.046000
1779272933929128135,2026-05-20 15:58:53.928,-2.126000,2.647000,71.528000,0.304100,0.099100,0.204500,-0.001536,-0.074886,-0.041202,0.387000,0.337000,-10.115000
1779272933954108117,2026-05-20 15:58:53.953,-2.129000,2.551000,71.469000,0.301300,0.098200,0.203300,-0.003115,-0.059698,-0.041672,0.529000,0.488000,-10.121000
1779272933979544302,2026-05-20 15:58:53.978,-2.134000,2.466000,71.408000,0.301400,0.101100,0.202200,-0.001636,-0.052750,-0.042304,0.255000,0.379000,-9.996000
1779272934004210913,2026-05-20 15:58:54.003,-2.140000,2.390000,71.348000,0.303100,0.096200,0.200100,-0.001802,-0.054283,-0.041612,0.478000,0.525000,-10.224000
1779272934029286228,2026-05-20 15:58:54.028,-2.141000,2.322000,71.290000,0.305900,0.096200,0.204600,0.000349,-0.043946,-0.042561,0.412000,0.400000,-10.136000
1779272934054340228,2026-05-20 15:58:54.053,-2.140000,2.266000,71.235000,0.303400,0.106000,0.206600,0.007316,-0.027197,-0.042744,0.163000,0.298000,-10.114000
1779272934079409802,2026-05-20 15:58:54.078,-2.145000,2.233000,71.180000,0.306100,0.102000,0.202400,-0.002272,-0.017350,-0.040703,0.297000,0.331000,-10.266000
1779272934104164506,2026-05-20 15:58:54.103,-2.150000,2.223000,71.122000,0.305900,0.095200,0.202500,-0.001419,-0.002593,-0.037246,0.304000,0.212000,-10.235000
1779272934129176598,2026-05-20 15:58:54.128,-2.152000,2.221000,71.069000,0.306000,0.100100,0.199200,0.000418,0.005951,-0.037885,0.280000,0.180000,-10.088000
1779272934191714968,2026-05-20 15:58:54.190,-2.149000,2.250000,70.969000,0.302300,0.099200,0.200100,0.000692,0.018244,-0.033142,0.326000,0.470000,-10.147000
1779272934204187876,2026-05-20 15:58:54.203,-2.145000,2.283000,70.919000,0.303200,0.099100,0.199000,0.004976,0.032670,-0.035234,0.355000,0.428000,-10.047000
1779272934229157172,2026-05-20 15:58:54.228,-2.141000,2.329000,70.868000,0.302300,0.101100,0.196800,0.004905,0.033494,-0.031918,0.298000,0.457000,-10.186000
1779272934254363487,2026-05-20 15:58:54.253,-2.135000,2.390000,70.819000,0.302300,0.100100,0.196800,0.005123,0.042957,-0.031425,0.362000,0.406000,-10.225000
1779272934279518117,2026-05-20 15:58:54.278,-2.127000,2.454000,70.774000,0.301400,0.102100,0.201100,0.010139,0.053598,-0.031518,0.453000,0.315000,-10.157000
1779272934304237857,2026-05-20 15:58:54.303,-2.120000,2.518000,70.734000,0.303300,0.103100,0.200100,0.006144,0.044656,-0.028247,0.476000,0.275000,-10.065000
1779272934329073931,2026-05-20 15:58:54.328,-2.111000,2.585000,70.697000,0.303200,0.101100,0.202300,0.004876,0.043085,-0.024254,0.505000,0.247000,-10.184000
1779272934354113098,2026-05-20 15:58:54.353,-2.104000,2.648000,70.661000,0.302300,0.102100,0.200000,0.005951,0.048697,-0.021258,0.440000,0.284000,-10.152000
1779272934379548561,2026-05-20 15:58:54.378,-2.096000,2.705000,70.632000,0.301500,0.105100,0.201100,0.006965,0.037803,-0.017198,0.460000,0.362000,-10.089000
1779272934404132691,2026-05-20 15:58:54.403,-2.089000,2.762000,70.604000,0.300600,0.106100,0.204200,0.002211,0.033268,-0.016308,0.729000,0.328000,-10.216000
1779272934429077542,2026-05-20 15:58:54.428,-2.081000,2.810000,70.579000,0.298600,0.101200,0.204200,0.005462,0.039135,-0.017858,0.473000,0.378000,-10.099000
1779272934454036265,2026-05-20 15:58:54.453,-2.076000,2.850000,70.557000,0.301400,0.103100,0.204300,0.003815,0.024665,-0.013812,0.420000,0.345000,-10.058000
1779272934479469098,2026-05-20 15:58:54.478,-2.072000,2.886000,70.540000,0.297700,0.104200,0.204100,0.000326,0.017600,-0.012331,0.831000,0.268000,-10.229000
1779272934504147135,2026-05-20 15:58:54.503,-2.067000,2.908000,70.523000,0.300600,0.106100,0.205300,0.004111,0.017787,-0.012835,0.604000,0.433000,-10.147000
1779272934529099894,2026-05-20 15:58:54.528,-2.063000,2.924000,70.505000,0.300500,0.105100,0.204300,0.004930,0.011581,-0.011066,0.548000,0.302000,-10.035000
1779272934554088727,2026-05-20 15:58:54.553,-2.062000,2.941000,70.485000,0.301600,0.109000,0.202100,-0.001116,0.006807,-0.011357,0.658000,0.263000,-10.185000
1779272934579444839,2026-05-20 15:58:54.578,-2.065000,2.949000,70.466000,0.297800,0.108100,0.201900,-0.002257,0.005514,-0.015501,0.513000,0.446000,-10.104000
1779272934604110579,2026-05-20 15:58:54.603,-2.065000,2.944000,70.453000,0.300500,0.103100,0.201000,0.000732,-0.007293,-0.010585,0.672000,0.221000,-10.111000
1779272934629038246,2026-05-20 15:58:54.628,-2.065000,2.929000,70.440000,0.296800,0.105200,0.200800,-0.002029,-0.016154,-0.008023,0.779000,0.233000,-10.131000
1779272934654027098,2026-05-20 15:58:54.653,-2.067000,2.908000,70.427000,0.299600,0.105100,0.198800,-0.002490,-0.013667,-0.008495,0.499000,0.391000,-10.100000
1779272934679169598,2026-05-20 15:58:54.678,-2.071000,2.885000,70.419000,0.298800,0.108100,0.200900,-0.002501,-0.015807,-0.008514,0.396000,0.357000,-10.181000
1779272934704081431,2026-05-20 15:58:54.703,-2.076000,2.865000,70.410000,0.298700,0.104100,0.199800,-0.001693,-0.017799,-0.006322,0.589000,0.338000,-10.176000
1779272934729073227,2026-05-20 15:58:54.727,-2.079000,2.837000,70.399000,0.300600,0.106100,0.201000,-0.003230,-0.020209,-0.006764,0.666000,0.345000,-10.105000
1779272934754061172,2026-05-20 15:58:54.753,-2.082000,2.802000,70.391000,0.301600,0.110000,0.202100,-0.002376,-0.025058,-0.005985,0.424000,0.307000,-10.048000
1779272934779276672,2026-05-20 15:58:54.778,-2.084000,2.769000,70.387000,0.301500,0.105100,0.204300,-0.002040,-0.023807,-0.004224,0.437000,0.290000,-10.240000
1779272934804048487,2026-05-20 15:58:54.802,-2.089000,2.740000,70.387000,0.300600,0.106100,0.199900,-0.004462,-0.018970,-0.000146,0.439000,0.383000,-10.217000
1779272934829003801,2026-05-20 15:58:54.828,-2.092000,2.715000,70.386000,0.299600,0.105100,0.203100,-0.004325,-0.018186,-0.001771,0.484000,0.387000,-10.026000
1779272934854095227,2026-05-20 15:58:54.853,-2.094000,2.693000,70.389000,0.301500,0.107000,0.202100,0.000140,-0.016086,-0.000711,0.566000,0.413000,-10.183000
1779272934879231690,2026-05-20 15:58:54.878,-2.099000,2.672000,70.392000,0.303300,0.103100,0.201200,-0.003020,-0.013234,0.002819,0.427000,0.296000,-10.085000
1779272934904107061,2026-05-20 15:58:54.903,-2.103000,2.654000,70.393000,0.299500,0.102200,0.203100,-0.004470,-0.011086,0.002926,0.468000,0.262000,-10.206000
1779272934929031227,2026-05-20 15:58:54.928,-2.107000,2.642000,70.394000,0.300600,0.106100,0.198800,-0.004093,-0.004117,0.000059,0.281000,0.352000,-10.173000
1779272934954120375,2026-05-20 15:58:54.953,-2.109000,2.638000,70.394000,0.301500,0.108000,0.202100,-0.001521,-0.000903,0.003490,0.476000,0.394000,-10.147000
1779272934979199394,2026-05-20 15:58:54.978,-2.110000,2.639000,70.398000,0.301400,0.103100,0.204300,-0.000877,0.000857,0.003522,0.576000,0.314000,-10.163000
1779272935004128746,2026-05-20 15:58:55.003,-2.113000,2.642000,70.400000,0.301600,0.112900,0.202100,-0.002288,0.003690,0.001933,0.514000,0.436000,-10.113000
1779272935029121024,2026-05-20 15:58:55.028,-2.116000,2.651000,70.402000,0.301400,0.101200,0.203200,-0.001763,0.005893,0.000280,0.372000,0.358000,-10.237000
1779272935054098746,2026-05-20 15:58:55.053,-2.117000,2.666000,70.403000,0.301600,0.111000,0.203200,0.001332,0.012729,-0.000358,0.359000,0.327000,-10.236000
1779272935079285227,2026-05-20 15:58:55.078,-2.118000,2.682000,70.403000,0.299600,0.104100,0.207500,-0.001666,0.011111,0.002819,0.469000,0.455000,-10.137000
1779272935104057598,2026-05-20 15:58:55.103,-2.116000,2.700000,70.403000,0.300500,0.102200,0.207500,-0.001185,0.009200,0.002465,0.537000,0.437000,-10.088000
1779272935128948801,2026-05-20 15:58:55.127,-2.118000,2.719000,70.401000,0.302300,0.100200,0.206500,0.000887,0.015037,-0.001562,0.569000,0.493000,-10.241000
1779272935192637116,2026-05-20 15:58:55.191,-2.119000,2.769000,70.402000,0.302300,0.100200,0.206500,-0.002095,0.017309,0.000939,0.564000,0.328000,-10.171000
1779272935204164542,2026-05-20 15:58:55.203,-2.119000,2.793000,70.409000,0.300500,0.105100,0.205300,-0.001327,0.016240,0.003048,0.432000,0.381000,-10.090000
1779272935229000616,2026-05-20 15:58:55.227,-2.120000,2.812000,70.410000,0.301400,0.101200,0.206500,0.001083,0.010288,0.001988,0.520000,0.431000,-10.232000
1779272935253939301,2026-05-20 15:58:55.252,-2.120000,2.826000,70.413000,0.300500,0.102100,0.199900,0.000470,0.009356,0.003543,0.454000,0.238000,-10.187000
1779272935279159579,2026-05-20 15:58:55.278,-2.119000,2.840000,70.419000,0.302400,0.103100,0.203300,-0.003377,0.011521,0.007192,0.476000,0.432000,-10.065000
1779272935304278431,2026-05-20 15:58:55.303,-2.120000,2.858000,70.427000,0.298600,0.102200,0.202000,-0.002212,0.010532,0.006165,0.651000,0.463000,-10.072000
1779272935328929042,2026-05-20 15:58:55.327,-2.122000,2.875000,70.432000,0.300400,0.100200,0.202100,0.001434,0.012202,0.002224,0.607000,0.483000,-10.259000
1779272935353934560,2026-05-20 15:58:55.352,-2.122000,2.887000,70.440000,0.298600,0.102200,0.206300,-0.000254,0.006661,0.005934,0.495000,0.207000,-10.199000
1779272935379092857,2026-05-20 15:58:55.378,-2.121000,2.891000,70.445000,0.301400,0.103100,0.203200,-0.002245,-0.001266,0.008015,0.567000,0.323000,-10.110000
1779272935404094227,2026-05-20 15:58:55.402,-2.120000,2.889000,70.458000,0.299500,0.102200,0.202100,0.001140,-0.003015,0.006725,0.562000,0.445000,-10.047000
1779272935428976264,2026-05-20 15:58:55.427,-2.117000,2.881000,70.465000,0.298600,0.102200,0.203100,0.003462,-0.005429,0.004889,0.467000,0.431000,-10.121000
1779272935453909394,2026-05-20 15:58:55.452,-2.116000,2.877000,70.474000,0.301500,0.105100,0.201000,0.002367,-0.004639,0.003520,0.459000,0.268000,-10.236000
1779272935479157579,2026-05-20 15:58:55.478,-2.115000,2.876000,70.487000,0.298700,0.104200,0.204200,-0.002710,0.001723,0.011949,0.506000,0.398000,-10.148000
1779272935503952190,2026-05-20 15:58:55.502,-2.114000,2.874000,70.498000,0.299600,0.103100,0.198800,-0.002261,-0.003535,0.009471,0.675000,0.450000,-10.023000
1779272935528926468,2026-05-20 15:58:55.527,-2.113000,2.867000,70.507000,0.301500,0.106100,0.202100,0.002111,-0.008024,0.006395,0.614000,0.497000,-10.196000
1779272935554011431,2026-05-20 15:58:55.552,-2.114000,2.856000,70.522000,0.298700,0.106100,0.204100,0.001481,-0.009796,0.009114,0.480000,0.285000,-10.187000
1779272935579240875,2026-05-20 15:58:55.578,-2.113000,2.844000,70.539000,0.297700,0.102200,0.199800,-0.003131,-0.007288,0.013911,0.459000,0.178000,-10.191000
1779272935603922116,2026-05-20 15:58:55.602,-2.113000,2.834000,70.557000,0.302400,0.105100,0.203300,-0.000878,-0.007177,0.010713,0.489000,0.444000,-10.084000
1779272935628913727,2026-05-20 15:58:55.627,-2.111000,2.829000,70.573000,0.301400,0.101200,0.204300,-0.000491,-0.004222,0.011950,0.533000,0.511000,-10.154000
1779272935653903116,2026-05-20 15:58:55.652,-2.114000,2.824000,70.591000,0.300500,0.102100,0.202100,0.000030,-0.002343,0.008926,0.447000,0.383000,-10.248000
1779272935679260875,2026-05-20 15:58:55.678,-2.115000,2.816000,70.614000,0.303200,0.101100,0.205500,-0.002092,-0.007472,0.015684,0.440000,0.317000,-10.135000
1779272935703898819,2026-05-20 15:58:55.702,-2.114000,2.809000,70.626000,0.297700,0.103200,0.200900,-0.001902,-0.006020,0.014270,0.566000,0.418000,-10.107000
1779272935728941393,2026-05-20 15:58:55.727,-2.114000,2.805000,70.645000,0.299600,0.105100,0.202000,-0.000308,-0.000026,0.011506,0.600000,0.518000,-10.193000
1779272935753893282,2026-05-20 15:58:55.752,-2.117000,2.807000,70.662000,0.302400,0.107000,0.202200,-0.000796,0.002765,0.013358,0.374000,0.378000,-10.122000
1779272935779045264,2026-05-20 15:58:55.777,-2.120000,2.813000,70.679000,0.301400,0.104100,0.201000,-0.001144,0.001546,0.011806,0.575000,0.232000,-10.140000
1779272935803917634,2026-05-20 15:58:55.802,-2.120000,2.813000,70.697000,0.301600,0.112900,0.201000,0.000419,-0.000752,0.016497,0.547000,0.349000,-10.198000
1779272935832131727,2026-05-20 15:58:55.827,-2.116000,2.810000,70.719000,0.301400,0.100200,0.198900,-0.002727,-0.003293,0.016951,0.501000,0.363000,-10.143000
1779272935854000042,2026-05-20 15:58:55.852,-2.118000,2.810000,70.745000,0.298600,0.101200,0.195500,0.001074,0.001374,0.012254,0.461000,0.469000,-10.095000
1779272935878941449,2026-05-20 15:58:55.877,-2.118000,2.818000,70.770000,0.300600,0.109000,0.199900,-0.001253,0.006485,0.016285,0.468000,0.320000,-10.059000
1779272935903950819,2026-05-20 15:58:55.902,-2.117000,2.829000,70.794000,0.300600,0.110000,0.203100,0.000840,0.006256,0.019790,0.502000,0.215000,-10.241000
1779272935928917245,2026-05-20 15:58:55.927,-2.115000,2.836000,70.822000,0.300500,0.104100,0.202100,-0.000698,0.002731,0.020707,0.443000,0.517000,-10.188000
1779272935953857282,2026-05-20 15:58:55.952,-2.110000,2.838000,70.847000,0.301400,0.100200,0.218400,0.002109,-0.001374,0.017498,0.639000,0.459000,-10.024000
1779272935978900819,2026-05-20 15:58:55.977,-2.108000,2.840000,70.878000,0.301400,0.103100,0.204300,0.003408,0.001676,0.017188,0.481000,0.432000,-10.122000
1779272936003853171,2026-05-20 15:58:56.002,-2.105000,2.850000,70.910000,0.302400,0.103100,0.203300,0.001335,0.007872,0.023986,0.518000,0.266000,-10.243000
1779272936029034264,2026-05-20 15:58:56.027,-2.102000,2.865000,70.938000,0.298600,0.103200,0.206300,0.001339,0.010534,0.024860,0.463000,0.297000,-10.169000
1779272936053985467,2026-05-20 15:58:56.052,-2.099000,2.878000,70.972000,0.303300,0.102100,0.204400,-0.000641,0.005193,0.024279,0.745000,0.440000,-10.043000
1779272936078865301,2026-05-20 15:58:56.077,-2.096000,2.882000,71.004000,0.299500,0.100200,0.203200,0.000639,-0.000695,0.023462,0.593000,0.505000,-10.117000
1779272936103863967,2026-05-20 15:58:56.102,-2.092000,2.882000,71.036000,0.298500,0.098300,0.203100,0.002472,0.001180,0.021134,0.438000,0.349000,-10.226000
1779272936128931912,2026-05-20 15:58:56.127,-2.090000,2.884000,71.072000,0.302300,0.101100,0.206500,0.001477,0.002353,0.024952,0.478000,0.261000,-10.062000
1779272936192193893,2026-05-20 15:58:56.191,-2.092000,2.897000,71.142000,0.302200,0.098200,0.201100,-0.003504,0.002737,0.024635,0.641000,0.502000,-10.231000
1779272936203888727,2026-05-20 15:58:56.202,-2.094000,2.897000,71.178000,0.300500,0.104100,0.206400,-0.000957,-0.002989,0.022281,0.424000,0.401000,-10.123000
1779272936228888208,2026-05-20 15:58:56.227,-2.094000,2.890000,71.211000,0.301400,0.100200,0.206500,0.000943,-0.010410,0.020989,0.544000,0.304000,-10.170000
1779272936253749838,2026-05-20 15:58:56.252,-2.091000,2.882000,71.249000,0.300400,0.099200,0.203200,-0.002868,-0.004484,0.026808,0.477000,0.382000,-10.147000
1779272936278826097,2026-05-20 15:58:56.277,-2.094000,2.881000,71.284000,0.302300,0.099200,0.204400,-0.005619,0.001088,0.028617,0.541000,0.369000,-10.065000
1779272936303795430,2026-05-20 15:58:56.302,-2.100000,2.890000,71.318000,0.301300,0.096300,0.206500,-0.003875,0.006116,0.021308,0.532000,0.481000,-10.060000
1779272936328853430,2026-05-20 15:58:56.327,-2.102000,2.897000,71.352000,0.300400,0.098200,0.205400,-0.002649,-0.001262,0.023468,0.640000,0.374000,-10.156000
1779272936353840023,2026-05-20 15:58:56.352,-2.103000,2.891000,71.386000,0.299500,0.102200,0.204200,-0.000101,-0.008549,0.023555,0.614000,0.239000,-10.258000
1779272936378825504,2026-05-20 15:58:56.377,-2.102000,2.879000,71.424000,0.302300,0.099200,0.205500,-0.002023,-0.009356,0.026670,0.445000,0.430000,-10.150000
1779272936403898319,2026-05-20 15:58:56.402,-2.102000,2.874000,71.458000,0.302200,0.097200,0.205500,-0.002239,-0.002881,0.025255,0.631000,0.405000,-9.937000
1779272936428819560,2026-05-20 15:58:56.427,-2.104000,2.878000,71.492000,0.302300,0.100200,0.203300,-0.001086,0.004589,0.022779,0.522000,0.389000,-10.063000
1779272936453763097,2026-05-20 15:58:56.452,-2.104000,2.888000,71.529000,0.301300,0.097200,0.203300,-0.000460,0.004955,0.026687,0.512000,0.387000,-10.240000
1779272936478830782,2026-05-20 15:58:56.477,-2.103000,2.893000,71.568000,0.301400,0.101200,0.204300,-0.001161,-0.000634,0.027849,0.510000,0.289000,-10.252000
1779272936503763226,2026-05-20 15:58:56.502,-2.103000,2.888000,71.607000,0.304100,0.098200,0.204500,-0.002551,-0.004819,0.026898,0.564000,0.438000,-10.072000
1779272936528793208,2026-05-20 15:58:56.527,-2.100000,2.883000,71.643000,0.303200,0.097200,0.204500,0.000974,-0.003421,0.027519,0.545000,0.464000,-10.004000
1779272936553767430,2026-05-20 15:58:56.552,-2.099000,2.883000,71.683000,0.302200,0.096200,0.203300,0.002673,0.001281,0.023506,0.511000,0.399000,-10.271000
1779272936578851504,2026-05-20 15:58:56.577,-2.098000,2.889000,71.725000,0.303300,0.104100,0.203300,0.000533,0.004466,0.028035,0.469000,0.357000,-10.133000
1779272936603780486,2026-05-20 15:58:56.602,-2.100000,2.894000,71.763000,0.303400,0.106000,0.204400,-0.005124,-0.000038,0.028914,0.575000,0.331000,-10.067000
1779272936628728652,2026-05-20 15:58:56.627,-2.103000,2.891000,71.802000,0.303300,0.102100,0.205500,-0.002187,-0.006039,0.027990,0.706000,0.496000,-10.216000
1779272936653800800,2026-05-20 15:58:56.652,-2.102000,2.882000,71.841000,0.303200,0.099200,0.204400,0.000788,-0.007517,0.027865,0.416000,0.405000,-10.153000
1779272936678768726,2026-05-20 15:58:56.677,-2.101000,2.872000,71.880000,0.302300,0.098200,0.201200,0.001737,-0.006194,0.025677,0.462000,0.304000,-10.169000
1779272936703921115,2026-05-20 15:58:56.702,-2.102000,2.868000,71.919000,0.301300,0.096300,0.204400,-0.002986,-0.003123,0.030337,0.503000,0.354000,-10.101000
1779272936728782097,2026-05-20 15:58:56.727,-2.104000,2.866000,71.958000,0.300300,0.096300,0.202200,-0.004232,-0.000622,0.029714,0.486000,0.364000,-10.247000
1779272936753876041,2026-05-20 15:58:56.752,-2.108000,2.863000,71.995000,0.303200,0.098200,0.200100,-0.001622,-0.004703,0.025597,0.434000,0.454000,-10.179000
1779272936778779782,2026-05-20 15:58:56.777,-2.109000,2.856000,72.036000,0.302200,0.095300,0.206600,-0.003396,-0.008983,0.030023,0.588000,0.449000,-10.128000
1779272936803774541,2026-05-20 15:58:56.802,-2.110000,2.844000,72.078000,0.304900,0.094200,0.205700,0.000049,-0.010452,0.025339,0.480000,0.392000,-10.164000
1779272936828742171,2026-05-20 15:58:56.827,-2.111000,2.831000,72.119000,0.304900,0.092300,0.202400,-0.001674,-0.008988,0.028489,0.449000,0.381000,-10.230000
1779272936853924615,2026-05-20 15:58:56.852,-2.112000,2.824000,72.156000,0.303100,0.093300,0.199100,-0.002264,-0.001413,0.028848,0.425000,0.315000,-10.129000
1779272936878767467,2026-05-20 15:58:56.877,-2.115000,2.826000,72.198000,0.304000,0.092300,0.204500,-0.004728,0.000142,0.027500,0.590000,0.463000,-10.076000
1779272936903735782,2026-05-20 15:58:56.902,-2.117000,2.828000,72.238000,0.305000,0.096200,0.198100,-0.002467,-0.002167,0.028655,0.688000,0.414000,-10.133000
1779272936928674522,2026-05-20 15:58:56.927,-2.118000,2.820000,72.274000,0.304000,0.094200,0.198000,0.000898,-0.009435,0.023609,0.491000,0.338000,-10.230000
1779272936953834430,2026-05-20 15:58:56.952,-2.116000,2.810000,72.313000,0.305000,0.096200,0.202400,0.001150,-0.008354,0.027438,0.494000,0.340000,-10.118000
1779272936978926078,2026-05-20 15:58:56.977,-2.114000,2.803000,72.356000,0.304900,0.093200,0.201300,-0.001978,-0.000111,0.029327,0.475000,0.265000,-10.039000
1779272937003679059,2026-05-20 15:58:57.002,-2.116000,2.805000,72.393000,0.305000,0.095200,0.201300,-0.002248,0.001921,0.027462,0.515000,0.529000,-10.231000
1779272937028813633,2026-05-20 15:58:57.027,-2.117000,2.813000,72.432000,0.305000,0.096200,0.204600,-0.002742,0.002740,0.029797,0.545000,0.398000,-10.154000
1779272937053888800,2026-05-20 15:58:57.052,-2.121000,2.813000,72.472000,0.305000,0.096200,0.197000,-0.000561,-0.001874,0.025567,0.524000,0.411000,-10.193000
1779272937078984707,2026-05-20 15:58:57.077,-2.119000,2.804000,72.518000,0.303100,0.094200,0.199100,0.000292,-0.013219,0.030645,0.524000,0.348000,-10.149000
1779272937103670541,2026-05-20 15:58:57.102,-2.116000,2.791000,72.559000,0.304100,0.096200,0.203400,0.000669,-0.010428,0.030124,0.465000,0.318000,-10.254000
1779272937128811837,2026-05-20 15:58:57.127,-2.116000,2.786000,72.602000,0.306700,0.089300,0.203600,-0.002587,0.000473,0.031688,0.436000,0.460000,-10.115000
1779272937192167281,2026-05-20 15:58:57.191,-2.120000,2.802000,72.685000,0.304000,0.092300,0.201300,-0.000770,0.003509,0.028595,0.607000,0.409000,-10.217000
1779272937203707763,2026-05-20 15:58:57.202,-2.118000,2.805000,72.729000,0.304900,0.090400,0.220800,0.001344,-0.002743,0.031725,0.461000,0.376000,-10.263000
1779272937228666226,2026-05-20 15:58:57.227,-2.114000,2.797000,72.772000,0.304000,0.093300,0.202400,0.000876,-0.007539,0.031750,0.477000,0.213000,-10.100000
1779272937253719448,2026-05-20 15:58:57.252,-2.112000,2.788000,72.824000,0.303900,0.090300,0.199100,-0.000338,-0.006189,0.035972,0.475000,0.393000,-10.063000
1779272937279150504,2026-05-20 15:58:57.277,-2.109000,2.788000,72.870000,0.304900,0.091300,0.205700,-0.000996,0.003408,0.035911,0.567000,0.424000,-10.098000
1779272937303772985,2026-05-20 15:58:57.302,-2.109000,2.799000,72.917000,0.305800,0.089300,0.204700,0.000421,0.008438,0.030387,0.372000,0.421000,-10.120000
1779272937328594633,2026-05-20 15:58:57.327,-2.109000,2.810000,72.967000,0.305900,0.093200,0.202500,-0.001318,0.003832,0.033581,0.538000,0.426000,-10.175000
1779272937353589578,2026-05-20 15:58:57.352,-2.107000,2.813000,73.014000,0.305800,0.090300,0.202500,-0.000062,-0.004010,0.034694,0.524000,0.306000,-10.163000
1779272937378971300,2026-05-20 15:58:57.377,-2.105000,2.807000,73.066000,0.304900,0.090300,0.205700,0.001399,-0.007398,0.036280,0.510000,0.431000,-10.217000
1779272937403646411,2026-05-20 15:58:57.402,-2.102000,2.798000,73.113000,0.305700,0.085400,0.202500,-0.002444,-0.005434,0.034951,0.491000,0.402000,-10.021000
1779272937428592781,2026-05-20 15:58:57.427,-2.103000,2.798000,73.163000,0.304800,0.089300,0.203500,-0.000542,0.001371,0.032296,0.558000,0.421000,-10.050000
1779272937453554837,2026-05-20 15:58:57.452,-2.105000,2.805000,73.212000,0.304800,0.086400,0.200300,-0.003296,0.004574,0.035523,0.528000,0.471000,-10.197000
1779272937478994874,2026-05-20 15:58:57.477,-2.107000,2.807000,73.256000,0.303800,0.086400,0.203500,-0.000345,-0.003161,0.031896,0.401000,0.300000,-10.247000
1779272937503675578,2026-05-20 15:58:57.502,-2.109000,2.806000,73.309000,0.305800,0.090300,0.205700,-0.001772,-0.002646,0.034693,0.521000,0.386000,-10.183000
1779272937528625855,2026-05-20 15:58:57.527,-2.109000,2.802000,73.356000,0.305700,0.086400,0.203600,-0.005668,-0.001078,0.040169,0.513000,0.363000,-9.967000
1779272937553624263,2026-05-20 15:58:57.552,-2.114000,2.802000,73.408000,0.306600,0.085400,0.202600,-0.002630,0.000712,0.030656,0.536000,0.512000,-10.162000
1779272937578885911,2026-05-20 15:58:57.577,-2.117000,2.807000,73.455000,0.305700,0.086400,0.202500,-0.003969,0.002481,0.033875,0.403000,0.431000,-10.209000
1779272937603619633,2026-05-20 15:58:57.602,-2.122000,2.810000,73.504000,0.308500,0.085300,0.204800,-0.004484,0.001766,0.032733,0.545000,0.340000,-10.119000
1779272937628563818,2026-05-20 15:58:57.627,-2.126000,2.812000,73.552000,0.307600,0.087300,0.195000,-0.004432,-0.000750,0.035894,0.488000,0.399000,-10.139000
1779272937653542633,2026-05-20 15:58:57.652,-2.129000,2.815000,73.598000,0.306600,0.086300,0.205800,-0.005394,-0.000913,0.036235,0.610000,0.418000,-10.162000
1779272937678748615,2026-05-20 15:58:57.677,-2.134000,2.817000,73.649000,0.307500,0.085300,0.200400,-0.002748,0.003342,0.033586,0.515000,0.464000,-10.091000
1779272937703598411,2026-05-20 15:58:57.702,-2.140000,2.823000,73.701000,0.305800,0.090300,0.202500,-0.006313,0.003350,0.034211,0.487000,0.415000,-10.063000
1779272937728658226,2026-05-20 15:58:57.727,-2.146000,2.833000,73.748000,0.307600,0.087300,0.202600,-0.004563,0.004254,0.032938,0.630000,0.332000,-10.182000
1779272937753687337,2026-05-20 15:58:57.752,-2.150000,2.839000,73.799000,0.305700,0.086400,0.203600,-0.003560,0.002324,0.037089,0.431000,0.378000,-10.223000
1779272937778864374,2026-05-20 15:58:57.777,-2.153000,2.839000,73.850000,0.306700,0.087300,0.198200,-0.005021,-0.004821,0.036582,0.604000,0.383000,-10.056000
