Timestamp,Time,Roll,Pitch,Yaw,Velocity_Increment_X,Velocity_Increment_Y,Velocity_Increment_Z,Acceleration_X,Acceleration_Y,Acceleration_Z,Angular_Rate_X,Angular_Rate_Y,Angular_Rate_Z,Magnetic_Field_X,Magnetic_Field_Y,Magnetic_Field_Z,Pressure
1779272919581986496,2026-05-20 15:58:39.580,-0.054850,0.482162,189.786484,0.010846,-0.001255,0.979688,0.128803,0.007996,9.817091,-0.001873,0.004704,-0.016226,-0.461581,-0.229288,-0.855096,98938.0000
1779272919681885366,2026-05-20 15:58:39.680,-0.018606,0.448136,189.881348,0.009456,-0.002691,0.978969,-0.011611,-0.100154,9.795428,-0.008702,0.002174,-0.013536,-0.463448,-0.231770,-0.857988,98942.0000
1779272919782418625,2026-05-20 15:58:39.781,0.010716,0.422817,189.962433,0.008049,-0.006030,0.978396,-0.037153,-0.222184,9.799151,0.000363,0.002904,-0.003855,-0.460445,-0.230850,-0.857787,98934.0000
1779272919882314384,2026-05-20 15:58:39.881,0.007282,0.412797,190.013885,0.007008,-0.006047,0.977693,0.134789,-0.132963,9.824730,0.005612,0.002778,-0.005999,-0.461640,-0.232327,-0.857121,98933.0000
1779272919982114921,2026-05-20 15:58:39.980,-0.021562,0.434684,190.051285,0.007164,-0.005270,0.977406,0.116609,-0.028367,9.798106,0.006404,-0.006993,-0.006209,-0.461642,-0.231741,-0.857435,98934.0000
1779272920083294199,2026-05-20 15:58:40.082,-0.057533,0.470147,190.086334,0.008911,-0.002656,0.978151,0.057781,0.039897,9.720977,0.008208,-0.005555,-0.006564,-0.461905,-0.231391,-0.855637,98932.0000
1779272920182310551,2026-05-20 15:58:40.180,-0.082604,0.513251,190.113602,0.011041,-0.001166,0.978543,0.157376,-0.067379,9.774155,0.009093,-0.007708,-0.004602,-0.462824,-0.232903,-0.856177,98932.0000
1779272920282087588,2026-05-20 15:58:40.280,-0.082238,0.540329,190.128616,0.012686,-0.000982,0.979259,0.195693,-0.107365,9.880427,-0.004374,-0.002932,0.001580,-0.462492,-0.231377,-0.855022,98930.0000
1779272920381964958,2026-05-20 15:58:40.380,-0.057479,0.537198,190.135040,0.013686,-0.001351,0.979444,0.159911,-0.018607,9.795893,-0.003555,0.001835,-0.002006,-0.461925,-0.232600,-0.856207,98925.0000
1779272920482510403,2026-05-20 15:58:40.481,-0.022640,0.513676,190.130524,0.013238,-0.002914,0.979272,0.098501,0.022135,9.750216,-0.006035,0.003549,0.002708,-0.461907,-0.231689,-0.855630,98937.0000
1779272920582530551,2026-05-20 15:58:40.581,-0.007361,0.482170,190.111282,0.012013,-0.005126,0.979130,0.104717,-0.078569,9.802462,0.001055,0.004862,0.003972,-0.462539,-0.231747,-0.857412,98934.0000
1779272920681602347,2026-05-20 15:58:40.680,-0.011757,0.450479,190.080444,0.009882,-0.005587,0.978584,0.139980,-0.122896,9.832833,0.001490,-0.000120,0.008937,-0.459834,-0.232298,-0.856567,98933.0000
1779272920781938532,2026-05-20 15:58:40.780,-0.034278,0.432374,190.040421,0.009117,-0.004492,0.978063,0.042357,-0.081796,9.751954,0.003978,-0.001852,0.011262,-0.460129,-0.230821,-0.856895,98924.0000
1779272920882437365,2026-05-20 15:58:40.881,-0.052883,0.451559,189.983856,0.008183,-0.003284,0.977425,0.056689,-0.065831,9.736187,0.005128,-0.008728,0.012113,-0.461311,-0.231099,-0.855959,98931.0000
1779272920982259347,2026-05-20 15:58:40.980,-0.057163,0.517064,189.900970,0.010638,-0.001757,0.977544,0.140080,0.023423,9.785272,0.001062,-0.017456,0.016057,-0.462208,-0.231104,-0.855936,98931.0000
1779272921082070661,2026-05-20 15:58:41.080,-0.048396,0.596681,189.799164,0.015480,-0.001925,0.978414,0.128235,-0.031625,9.779136,-0.001532,-0.014051,0.020089,-0.462784,-0.231072,-0.854722,98940.0000
1779272921182008995,2026-05-20 15:58:41.180,-0.034195,0.634787,189.680801,0.018576,-0.003243,0.979199,0.107545,-0.141872,9.742579,-0.002537,-0.001029,0.022528,-0.463971,-0.227824,-0.855370,98933.0000
1779272921282207791,2026-05-20 15:58:41.280,-0.026474,0.609025,189.543488,0.018936,-0.004654,0.979547,0.153379,-0.155413,9.770788,0.003109,0.010441,0.029113,-0.464580,-0.228729,-0.855633,98933.0000
1779272921381462087,2026-05-20 15:58:41.380,-0.034209,0.536781,189.387726,0.016590,-0.003956,0.979897,0.175916,-0.003505,9.839843,0.007451,0.020161,0.030020,-0.465186,-0.228156,-0.856231,98932.0000
1779272921482055717,2026-05-20 15:58:41.480,-0.046977,0.419567,189.237671,0.011876,-0.002749,0.979722,0.047311,0.076280,9.767562,0.004587,0.021084,0.024008,-0.464877,-0.224899,-0.856917,98935.0000
1779272921582571383,2026-05-20 15:58:41.581,-0.052158,0.307244,189.093674,0.005529,-0.002086,0.978688,-0.030118,-0.018575,9.733026,-0.002395,0.017105,0.025371,-0.464611,-0.224951,-0.858722,98932.0000
1779272921682390346,2026-05-20 15:58:41.681,-0.041759,0.249653,188.949387,0.001453,-0.002557,0.978124,0.029255,-0.115891,9.802092,0.001351,-0.000129,0.024248,-0.464887,-0.223149,-0.858158,98934.0000
1779272921781458661,2026-05-20 15:58:41.780,-0.018755,0.265357,188.804749,0.000335,-0.003239,0.977143,0.056444,-0.082242,9.822475,-0.004013,-0.009856,0.028217,-0.464861,-0.223402,-0.856653,98930.0000
1779272921882019272,2026-05-20 15:58:41.880,-0.007327,0.341063,188.656982,0.002533,-0.004444,0.977158,-0.001103,0.017238,9.730804,-0.000294,-0.017770,0.024939,-0.466652,-0.221933,-0.856943,98937.0000
1779272921982635328,2026-05-20 15:58:41.981,-0.010445,0.433166,188.506226,0.006920,-0.004879,0.977511,0.044646,0.015036,9.726403,0.005205,-0.014096,0.027011,-0.465741,-0.219845,-0.857016,98938.0000
1779272922082175994,2026-05-20 15:58:42.080,-0.031042,0.509260,188.361115,0.011170,-0.004902,0.978690,0.153047,-0.076912,9.812156,0.004668,-0.010235,0.023657,-0.467511,-0.218639,-0.856100,98936.0000
1779272922182140790,2026-05-20 15:58:42.180,-0.059344,0.537795,188.220673,0.013653,-0.003164,0.979407,0.189657,-0.077194,9.852586,0.004292,0.001584,0.024925,-0.470185,-0.217447,-0.855461,98936.0000
1779272922282010198,2026-05-20 15:58:42.280,-0.081546,0.519202,188.082550,0.013490,-0.001877,0.979883,0.113587,0.006677,9.761181,0.009282,0.006287,0.031285,-0.470188,-0.216275,-0.856089,98938.0000
1779272922382212087,2026-05-20 15:58:42.380,-0.082045,0.466626,187.946655,0.011772,-0.001103,0.980084,0.107836,0.048773,9.762456,-0.003803,0.012320,0.024765,-0.469270,-0.215647,-0.855228,98930.0000
1779272922482127846,2026-05-20 15:58:42.480,-0.059819,0.403688,187.807556,0.008987,-0.001392,0.979519,0.103534,0.014919,9.828833,-0.006514,0.010875,0.022238,-0.468688,-0.214786,-0.856462,98934.0000
1779272922581944938,2026-05-20 15:58:42.580,-0.032512,0.354666,187.671860,0.006001,-0.003480,0.978539,0.064470,-0.065536,9.817907,-0.005619,0.005753,0.024738,-0.469913,-0.214839,-0.857930,98936.0000
1779272922682532735,2026-05-20 15:58:42.681,-0.015825,0.336131,187.536972,0.004358,-0.005017,0.977722,0.021720,-0.089206,9.753886,0.000240,-0.003633,0.025483,-0.469892,-0.214216,-0.857045,98934.0000
1779272922782430735,2026-05-20 15:58:42.781,-0.017081,0.350266,187.404678,0.004417,-0.005245,0.977626,0.055237,-0.046613,9.750560,0.007720,-0.003867,0.024282,-0.469284,-0.212725,-0.857096,98937.0000
1779272922882302271,2026-05-20 15:58:42.881,-0.042373,0.393231,187.274368,0.005612,-0.004470,0.977806,0.101512,-0.001198,9.806913,0.007506,-0.005950,0.022592,-0.471668,-0.210368,-0.857392,98944.0000
1779272922982108846,2026-05-20 15:58:42.980,-0.063330,0.443807,187.145645,0.007763,-0.002823,0.978164,0.096482,0.031424,9.797791,-0.000836,-0.011583,0.021804,-0.471658,-0.210647,-0.856786,98935.0000
1779272923082518253,2026-05-20 15:58:43.081,-0.071064,0.480955,187.019028,0.010083,-0.001865,0.978803,0.067470,-0.036725,9.749797,0.003261,-0.003810,0.023855,-0.474051,-0.208895,-0.857367,98931.0000
1779272923182166642,2026-05-20 15:58:43.180,-0.061731,0.495117,186.893661,0.011227,-0.002022,0.979394,0.117691,-0.077990,9.794874,-0.002253,0.000636,0.024371,-0.473737,-0.208280,-0.856790,98934.0000
1779272923281995993,2026-05-20 15:58:43.280,-0.049357,0.477063,186.765549,0.011596,-0.002741,0.979584,0.163962,-0.023428,9.854868,-0.000762,0.005010,0.023395,-0.473434,-0.206799,-0.857133,98937.0000
1779272923383224790,2026-05-20 15:58:43.382,-0.041291,0.443652,186.638229,0.010148,-0.004044,0.979342,0.081436,0.024043,9.787991,0.000957,0.002393,0.021144,-0.473439,-0.206808,-0.857433,98940.0000
1779272923482460567,2026-05-20 15:58:43.481,-0.046519,0.406308,186.516571,0.008637,-0.004569,0.978781,0.008350,-0.040078,9.728420,-0.001926,0.007425,0.025586,-0.473708,-0.206467,-0.855935,98934.0000
1779272923582341604,2026-05-20 15:58:43.581,-0.064323,0.371360,186.399384,0.006882,-0.004302,0.978645,0.278543,-0.320827,10.030715,0.003694,0.006237,0.022010,-0.475512,-0.204431,-0.857137,98938.0000
1779272923682088364,2026-05-20 15:58:43.680,-0.084279,0.315956,186.318649,0.005999,-0.000773,0.978850,0.063641,-0.062689,9.856263,0.004679,0.008513,0.002191,-0.474609,-0.203533,-0.857182,98932.0000
1779272923782480530,2026-05-20 15:58:43.781,-0.078546,0.328104,186.323944,0.000993,0.000428,0.975708,0.117649,0.038484,9.796675,-0.002829,-0.015228,-0.007791,-0.473420,-0.204715,-0.857184,98941.0000
1779272923882271326,2026-05-20 15:58:43.881,-0.046596,0.419634,186.460785,0.005855,0.000338,0.978866,0.266996,0.153490,9.903858,-0.002684,-0.002362,-0.043683,-0.475496,-0.206171,-0.855596,98942.0000
1779272923981565382,2026-05-20 15:58:43.980,0.009939,0.404769,186.931854,0.008047,0.003064,0.979767,-0.318679,-0.201270,9.577367,-0.012768,0.019531,-0.123527,-0.473417,-0.206772,-0.856235,98937.0000
1779272924082042678,2026-05-20 15:58:44.080,0.082774,0.412426,187.913391,0.001993,-0.001171,0.975960,0.972632,-0.212520,10.111439,-0.016452,-0.019877,-0.193418,-0.470225,-0.214272,-0.858835,98935.0000
1779272924182295937,2026-05-20 15:58:44.180,0.122001,0.518287,189.244522,0.002655,-0.004166,0.977583,-0.085992,0.069054,9.889975,-0.010847,-0.016715,-0.242817,-0.464562,-0.223400,-0.856661,98932.0000
1779272924282161808,2026-05-20 15:58:44.280,0.109455,0.675489,190.740997,0.007660,-0.009331,0.976533,-0.073487,-0.248900,9.917777,0.007264,-0.024752,-0.267600,-0.461043,-0.235858,-0.855852,98936.0000
1779272924381938289,2026-05-20 15:58:44.380,0.036949,0.792665,192.374298,0.019067,-0.006095,0.980258,-0.041052,0.043158,9.737930,0.015856,0.002018,-0.313103,-0.452727,-0.247684,-0.854880,98931.0000
1779272924483230326,2026-05-20 15:58:44.481,-0.055689,0.800796,194.176239,0.022698,-0.003837,0.980590,0.270093,-0.206679,9.797621,0.010571,0.004321,-0.327411,-0.448323,-0.259569,-0.855007,98937.0000
1779272924582404919,2026-05-20 15:58:44.581,-0.136108,0.682981,196.108627,0.022432,0.000415,0.982416,-0.028888,0.058938,9.769381,0.011010,0.027357,-0.342503,-0.439131,-0.272894,-0.854621,98934.0000
1779272924682274196,2026-05-20 15:58:44.680,-0.175729,0.489827,198.095016,0.016573,0.002288,0.982341,0.180995,-0.133639,9.891232,0.001704,0.033632,-0.343517,-0.428174,-0.287435,-0.855450,98937.0000
1779272924782194937,2026-05-20 15:58:44.780,-0.156852,0.277420,200.072083,0.009279,0.004476,0.979522,0.072640,-0.349559,9.749147,-0.003683,0.034331,-0.345421,-0.416624,-0.300214,-0.857237,98926.0000
1779272924882373974,2026-05-20 15:58:44.881,-0.089234,0.110673,202.000351,0.001786,-0.000205,0.978014,-0.140857,0.004313,9.786988,-0.012959,0.021411,-0.331378,-0.406852,-0.312093,-0.858400,98933.0000
1779272924982273918,2026-05-20 15:58:44.980,-0.005032,0.047832,203.903946,-0.003700,-0.000538,0.973915,0.125942,0.248599,10.021008,-0.011888,0.004281,-0.328846,-0.395302,-0.323988,-0.860508,98939.0000
1779272925082203900,2026-05-20 15:58:45.080,0.066259,0.099302,205.818207,-0.004432,-0.003115,0.973460,0.097271,0.400080,9.818759,-0.010712,-0.015322,-0.332573,-0.384577,-0.335186,-0.859013,98936.0000
1779272925183455103,2026-05-20 15:58:45.182,0.100500,0.227303,207.780029,0.001159,-0.004938,0.975577,-0.099039,-0.316652,9.603807,-0.009379,-0.023940,-0.351527,-0.373578,-0.345831,-0.859037,98938.0000
1779272925282477400,2026-05-20 15:58:45.281,0.095379,0.374248,209.794113,0.008165,-0.007643,0.980221,0.010324,-0.184597,9.820605,0.005295,-0.022744,-0.351919,-0.362570,-0.357640,-0.858134,98932.0000
1779272925382293066,2026-05-20 15:58:45.381,0.052890,0.460040,211.811142,0.014945,-0.006333,0.982565,-0.047722,0.214931,9.836189,0.011576,-0.011153,-0.348124,-0.351249,-0.367364,-0.857289,98936.0000
1779272925482186196,2026-05-20 15:58:45.480,-0.004058,0.453043,213.780518,0.019212,-0.004617,0.982018,0.199170,-0.028419,9.940738,0.012186,0.007939,-0.339844,-0.339085,-0.378642,-0.858827,98934.0000
1779272925582017529,2026-05-20 15:58:45.580,-0.046582,0.359077,215.686157,0.015846,-0.001194,0.980753,-0.043747,-0.103676,9.776736,0.013212,0.019448,-0.325752,-0.325678,-0.387775,-0.858649,98932.0000
1779272925682240955,2026-05-20 15:58:45.680,-0.044607,0.242248,217.587555,0.010289,0.004679,0.978881,0.188809,0.082844,9.831793,0.001620,0.023511,-0.333691,-0.312266,-0.398081,-0.857844,98937.0000
1779272925782139862,2026-05-20 15:58:45.780,0.002839,0.150187,219.519714,0.004156,0.002355,0.976957,0.051911,-0.082298,9.804887,-0.009632,0.018966,-0.342898,-0.298282,-0.406364,-0.859200,98934.0000
1779272925882026399,2026-05-20 15:58:45.880,0.068054,0.125009,221.493729,0.000670,-0.002211,0.976488,-0.047880,0.080719,9.827408,-0.009919,0.001106,-0.348534,-0.284866,-0.413423,-0.859372,98932.0000
1779272925982511918,2026-05-20 15:58:45.981,0.123259,0.185207,223.476791,0.001878,-0.003594,0.976880,-0.006970,0.486927,9.839878,-0.010270,-0.011033,-0.351942,-0.269405,-0.420253,-0.862301,98942.0000
1779272926081757066,2026-05-20 15:58:46.080,0.147852,0.273869,225.427841,0.006460,-0.004362,0.977433,0.267354,0.145328,9.884473,-0.011457,-0.019691,-0.341147,-0.256549,-0.429021,-0.859718,98939.0000
1779272926182106270,2026-05-20 15:58:46.180,0.140189,0.333496,227.336685,0.011370,-0.006358,0.978575,0.291165,0.355287,9.711097,0.002730,-0.009216,-0.329101,-0.244039,-0.434923,-0.860794,98933.0000
1779272926281992232,2026-05-20 15:58:46.280,0.122737,0.362747,229.245773,0.013924,-0.004124,0.979336,0.258639,-0.240832,9.824074,0.001765,0.004716,-0.340442,-0.229728,-0.441390,-0.861303,98941.0000
1779272926382481955,2026-05-20 15:58:46.381,0.108564,0.352568,231.170593,0.012433,-0.004174,0.979333,0.036882,-0.409575,9.891216,0.001534,0.009762,-0.339295,-0.214480,-0.446320,-0.860373,98939.0000
1779272926482062177,2026-05-20 15:58:46.480,0.111258,0.317460,233.111298,0.010889,0.000402,0.978833,0.117284,0.038229,9.715103,-0.000336,0.006932,-0.341420,-0.198682,-0.452499,-0.861527,98934.0000
1779272926581918880,2026-05-20 15:58:46.580,0.132761,0.281712,235.065430,0.010387,-0.001121,0.979830,-0.020764,-0.193679,9.645055,-0.003474,0.009599,-0.343413,-0.182869,-0.458949,-0.861774,98938.0000
1779272926682405732,2026-05-20 15:58:46.681,0.159713,0.269788,237.017525,0.008049,-0.004040,0.979124,-0.175629,0.119068,9.691866,-0.000799,-0.000095,-0.333275,-0.168207,-0.461798,-0.860879,98934.0000
1779272926782432843,2026-05-20 15:58:46.781,0.184350,0.289700,238.959892,0.010083,-0.002010,0.979727,0.090459,0.418745,9.884666,0.000034,0.004331,-0.335846,-0.152420,-0.467112,-0.862953,98933.0000
1779272926882202639,2026-05-20 15:58:46.880,0.192251,0.314864,240.905571,0.010525,-0.004054,0.977562,0.032845,0.035910,9.797932,-0.009255,-0.006934,-0.338214,-0.138322,-0.468144,-0.860887,98938.0000
1779272926982105954,2026-05-20 15:58:46.980,0.195204,0.315522,242.844261,0.013995,-0.002731,0.977721,0.186490,-0.195248,9.613939,-0.002150,0.007994,-0.344613,-0.121648,-0.472586,-0.863904,98935.0000
1779272927082903713,2026-05-20 15:58:47.081,0.201244,0.274291,244.782906,0.011775,-0.004649,0.977513,-0.194081,-0.101792,9.464434,-0.004056,0.009549,-0.337706,-0.106387,-0.474548,-0.863345,98930.0000
1779272927182106991,2026-05-20 15:58:47.180,0.220619,0.216741,246.729614,0.009588,-0.004980,0.978534,-0.343145,-0.277569,9.476007,-0.000615,0.011550,-0.341709,-0.090219,-0.475017,-0.862845,98936.0000
1779272927282156250,2026-05-20 15:58:47.280,0.251927,0.187670,248.706085,0.006481,-0.001600,0.978472,-0.113150,0.317772,9.619740,-0.002592,0.005192,-0.353122,-0.074982,-0.475546,-0.864120,98937.0000
1779272927381856954,2026-05-20 15:58:47.380,0.272715,0.186824,250.683685,0.005658,-0.005193,0.979434,-0.126131,-0.114623,9.658517,-0.003492,-0.003488,-0.341817,-0.057646,-0.476936,-0.864828,98937.0000
1779272927482449621,2026-05-20 15:58:47.481,0.267481,0.197226,252.644196,0.006938,-0.006471,0.979490,0.227205,-0.147786,9.757686,0.002454,0.003610,-0.339956,-0.040264,-0.476487,-0.863781,98944.0000
1779272927582332269,2026-05-20 15:58:47.581,0.249708,0.205474,254.591171,0.007627,-0.003501,0.979344,0.385172,-0.383093,9.947344,0.005049,0.004460,-0.341585,-0.025034,-0.476438,-0.865669,98937.0000
1779272927682125083,2026-05-20 15:58:47.680,0.240992,0.247692,256.547966,0.007855,-0.002316,0.977622,-0.220231,0.056844,9.556569,0.005786,-0.003416,-0.333829,-0.010676,-0.476648,-0.866029,98937.0000
1779272927782740139,2026-05-20 15:58:47.781,0.260661,0.294965,258.523842,0.011646,-0.001609,0.978598,0.052879,0.035641,9.824405,-0.003356,-0.002825,-0.341158,0.007301,-0.475023,-0.865626,98936.0000
1779272927882281102,2026-05-20 15:58:47.880,0.289728,0.296838,260.487244,0.012795,-0.002788,0.979625,0.083920,0.098460,9.867020,-0.002482,0.010954,-0.340160,0.022868,-0.471672,-0.866702,98941.0000
1779272927982097139,2026-05-20 15:58:47.980,0.319497,0.251666,262.424820,0.010862,-0.003985,0.978976,-0.032357,0.023013,9.717035,-0.011339,0.006582,-0.332796,0.037543,-0.469201,-0.867135,98934.0000
1779272928082021268,2026-05-20 15:58:48.080,0.340713,0.206579,264.373337,0.009566,-0.003814,0.979227,0.130765,0.019159,9.719254,0.000180,0.013471,-0.346613,0.054622,-0.466697,-0.867030,98939.0000
1779272928182341009,2026-05-20 15:58:48.180,0.349332,0.190247,266.332634,0.007063,-0.005011,0.977801,-0.012148,-0.125674,9.597171,-0.000685,0.008166,-0.348221,0.069642,-0.461501,-0.866037,98940.0000
1779272928282239416,2026-05-20 15:58:48.280,0.346085,0.202132,268.294281,0.005960,-0.004559,0.977052,-0.252251,0.022134,9.632274,-0.003449,-0.003127,-0.343311,0.086400,-0.458152,-0.867443,98937.0000
1779272928382054009,2026-05-20 15:58:48.380,0.339193,0.207764,270.234848,0.010092,-0.004942,0.979282,0.099751,-0.106139,9.797679,-0.002336,0.006504,-0.336026,0.101984,-0.453006,-0.868263,98936.0000
1779272928483336694,2026-05-20 15:58:48.482,0.343260,0.206579,272.161041,0.009493,-0.003745,0.978512,-0.130241,-0.114592,9.674539,0.008680,0.013447,-0.333132,0.114919,-0.447219,-0.866931,98941.0000
1779272928582492750,2026-05-20 15:58:48.581,0.357026,0.182504,274.081497,0.007893,-0.001850,0.979311,-0.350562,0.012262,9.617679,-0.003903,0.011449,-0.338570,0.130820,-0.442045,-0.866860,98939.0000
1779272928682388268,2026-05-20 15:58:48.681,0.381896,0.146491,276.021515,0.007289,-0.002037,0.979289,0.142069,-0.432761,9.726134,-0.004302,0.014932,-0.349088,0.144653,-0.433601,-0.866515,98937.0000
1779272928782299416,2026-05-20 15:58:48.781,0.410261,0.123496,277.968887,0.003782,-0.006048,0.977377,-0.059300,-0.207859,9.654525,0.002117,0.005197,-0.342086,0.159605,-0.428513,-0.869116,98936.0000
1779272928882538972,2026-05-20 15:58:48.881,0.418670,0.146926,279.908966,0.003285,-0.005888,0.978170,-0.214429,0.232368,9.583585,0.005767,-0.000605,-0.340588,0.174938,-0.420348,-0.868503,98936.0000
1779272928982314509,2026-05-20 15:58:48.981,0.400864,0.201376,281.827713,0.006340,-0.004978,0.978231,0.326302,0.175859,9.827759,0.003408,-0.005282,-0.338600,0.187860,-0.413109,-0.868405,98944.0000
1779272929082055897,2026-05-20 15:58:49.080,0.370751,0.245332,283.736069,0.007989,-0.003454,0.978919,0.115877,-0.128009,9.748770,0.001745,0.001514,-0.339065,0.201355,-0.405614,-0.869828,98940.0000
1779272929182014342,2026-05-20 15:58:49.180,0.343253,0.264523,285.650856,0.009644,-0.002573,0.979811,0.827567,-0.029262,10.300007,0.001411,0.004933,-0.342359,0.212208,-0.395402,-0.869449,98936.0000
1779272929282662490,2026-05-20 15:58:49.281,0.327802,0.267826,287.561455,0.005631,-0.002586,0.978056,-0.116507,0.117684,9.619035,-0.003610,-0.002178,-0.330474,0.226607,-0.388479,-0.870282,98942.0000
1779272929382865545,2026-05-20 15:58:49.381,0.333465,0.268125,289.469246,0.006370,-0.000284,0.978615,-0.142931,-0.143891,9.590875,0.000378,0.003007,-0.340454,0.238650,-0.378567,-0.870226,98937.0000
1779272929482028119,2026-05-20 15:58:49.480,0.361605,0.275562,291.375870,0.007012,-0.004152,0.978579,0.095671,-0.361643,9.710831,-0.007449,0.007109,-0.336951,0.251902,-0.367448,-0.869930,98936.0000
1779272929583358545,2026-05-20 15:58:49.582,0.389119,0.287819,293.282104,0.006017,-0.002612,0.978450,0.346162,0.138922,9.994962,-0.008388,-0.004824,-0.336643,0.264244,-0.357534,-0.869882,98939.0000
1779272929682481471,2026-05-20 15:58:49.681,0.398684,0.314821,295.197426,0.004433,-0.001597,0.977651,-0.041758,0.220209,9.622022,-0.001241,-0.005563,-0.343546,0.273255,-0.346820,-0.872168,98939.0000
1779272929782432786,2026-05-20 15:58:49.781,0.390589,0.352935,297.109077,0.006132,-0.007141,0.977980,-0.127859,-0.253127,9.494966,-0.003893,-0.006784,-0.337087,0.284722,-0.336875,-0.870899,98938.0000
1779272929881886601,2026-05-20 15:58:49.880,0.358432,0.400699,299.010616,0.007310,-0.006756,0.979078,-0.177040,-0.098780,9.717587,-0.000316,-0.009530,-0.332523,0.295587,-0.323111,-0.871205,98937.0000
1779272929982508619,2026-05-20 15:58:49.981,0.315306,0.449623,300.914108,0.008064,-0.001072,0.978858,-0.196116,0.096510,9.590107,0.001802,-0.013645,-0.337986,0.307015,-0.312346,-0.872354,98936.0000
1779272930082201434,2026-05-20 15:58:50.080,0.285176,0.496349,302.824219,0.009484,-0.001510,0.978948,0.273177,-0.213364,9.788036,0.006156,-0.002142,-0.337628,0.316681,-0.300654,-0.871980,98933.0000
1779272930182133563,2026-05-20 15:58:50.180,0.279238,0.528036,304.737232,0.011443,-0.000507,0.979079,-0.028239,0.174449,9.873045,0.001794,0.001221,-0.330416,0.325716,-0.290490,-0.872754,98932.0000
1779272930282049045,2026-05-20 15:58:50.280,0.298565,0.530934,306.655235,0.013304,0.002843,0.980645,0.151555,0.639913,9.847138,-0.011461,0.006340,-0.344171,0.333911,-0.274352,-0.872750,98937.0000
1779272930381981434,2026-05-20 15:58:50.380,0.316416,0.508455,308.572048,0.011719,-0.002662,0.979107,0.186769,-0.192448,9.822856,-0.007504,0.005459,-0.335577,0.343891,-0.262045,-0.871800,98939.0000
1779272930482253767,2026-05-20 15:58:50.480,0.310216,0.478020,310.478607,0.009015,-0.006136,0.978170,-0.003683,-0.622973,9.660065,0.004812,0.016493,-0.327278,0.352038,-0.249813,-0.872900,98935.0000
1779272930582081100,2026-05-20 15:58:50.580,0.290621,0.457312,312.379757,0.005642,-0.001211,0.977408,-0.254311,0.118505,9.623680,-0.002748,0.002019,-0.332558,0.359858,-0.237329,-0.875498,98940.0000
1779272930683346508,2026-05-20 15:58:50.682,0.273862,0.460915,314.282635,0.007901,-0.002002,0.978001,-0.032914,-0.078701,9.757283,-0.004840,-0.000634,-0.336339,0.368075,-0.222039,-0.873974,98939.0000
1779272930782022730,2026-05-20 15:58:50.780,0.270979,0.468406,316.189316,0.009263,-0.003273,0.978279,0.158759,-0.199323,9.908303,-0.000331,-0.002713,-0.323012,0.374458,-0.209177,-0.873545,98934.0000
1779272930882274415,2026-05-20 15:58:50.880,0.289566,0.473912,318.060932,0.009897,0.000613,0.979386,0.112526,0.626434,9.796195,-0.011071,0.000033,-0.308576,0.380545,-0.193368,-0.874080,98937.0000
1779272930982100896,2026-05-20 15:58:50.980,0.298371,0.477127,319.823147,0.011037,-0.005117,0.979464,0.114370,-0.043002,9.866106,-0.004410,0.006913,-0.299016,0.386888,-0.181453,-0.875427,98935.0000
1779272931082637748,2026-05-20 15:58:51.081,0.273526,0.474749,321.460186,0.011176,-0.006490,0.979284,0.114094,-0.027898,9.826498,0.007734,0.006196,-0.275370,0.391832,-0.167627,-0.872285,98939.0000
1779272931182698952,2026-05-20 15:58:51.180,0.229665,0.450212,322.995777,0.011818,-0.002983,0.979055,0.040097,-0.100671,9.790582,0.001570,0.009426,-0.259363,0.394593,-0.158078,-0.872285,98925.0000
1779272931282075229,2026-05-20 15:58:51.280,0.195703,0.425177,324.437931,0.009632,-0.002476,0.976986,-0.089550,0.137385,9.753086,0.000734,-0.006628,-0.235153,0.398859,-0.144381,-0.873322,98932.0000
1779272931383300840,2026-05-20 15:58:51.382,0.178113,0.590731,325.744644,0.009657,0.002524,0.973689,0.197697,0.120857,9.771877,-0.003954,-0.057201,-0.222827,0.401887,-0.135471,-0.874812,98940.0000
1779272931482509600,2026-05-20 15:58:51.481,0.210142,0.995825,326.956898,0.025988,-0.000555,0.975494,0.689537,0.063922,9.964251,-0.010809,-0.082880,-0.200751,0.401611,-0.125129,-0.877452,98937.0000
1779272931582265266,2026-05-20 15:58:51.581,0.269447,1.644109,328.007341,0.045425,-0.004627,0.971042,0.491966,-0.124036,9.760706,-0.011919,-0.153181,-0.157569,0.399775,-0.116961,-0.882700,98936.0000
1779272931682206155,2026-05-20 15:58:51.680,0.318431,2.786942,328.710747,0.087152,-0.009792,0.971212,1.601205,-0.143218,9.873333,-0.008394,-0.229860,-0.089443,0.394600,-0.110949,-0.889611,98934.0000
1779272931782199414,2026-05-20 15:58:51.780,0.336688,4.009767,329.115496,0.151252,-0.012523,0.976383,1.870169,0.326544,9.936815,-0.003216,-0.180363,-0.063254,0.388138,-0.108625,-0.899999,98945.0000
1779272931882488433,2026-05-20 15:58:51.881,0.303104,4.708440,329.292753,0.196558,-0.017299,0.977556,1.735878,-0.241486,9.787140,0.012538,-0.057752,-0.008259,0.382660,-0.104978,-0.906245,98938.0000
1779272931982198451,2026-05-20 15:58:51.980,0.233317,4.611280,329.219517,0.215289,-0.010289,0.974570,2.117578,0.091853,9.655313,0.021340,0.089649,0.044406,0.383877,-0.107000,-0.904428,98931.0000
1779272932082204451,2026-05-20 15:58:52.080,0.157241,3.866092,328.854515,0.187780,-0.003702,0.969397,1.724640,0.287340,9.727165,0.019682,0.184931,0.091985,0.386614,-0.109562,-0.901137,98940.0000
1779272932182389396,2026-05-20 15:58:52.181,0.107106,2.815346,328.288548,0.137703,0.005032,0.968897,1.602373,-0.031662,9.777797,0.009272,0.193185,0.111399,0.391230,-0.114631,-0.892436,98935.0000
1779272932281645266,2026-05-20 15:58:52.280,0.098302,1.914630,327.672260,0.081559,0.008252,0.967914,0.160883,-0.253580,9.385837,0.004982,0.120163,0.103383,0.396391,-0.120957,-0.886117,98931.0000
1779272932381637895,2026-05-20 15:58:52.380,0.116780,1.587552,327.052101,0.055133,0.007107,0.972951,0.867563,0.326525,10.321334,-0.001977,0.000659,0.110346,0.398833,-0.123811,-0.882512,98934.0000
1779272932483380858,2026-05-20 15:58:52.482,0.139063,1.928256,326.437664,0.047015,0.003671,0.971470,0.977396,-0.021605,9.555989,-0.001189,-0.117269,0.105591,0.394876,-0.129831,-0.883766,98935.0000
1779272932582478284,2026-05-20 15:58:52.581,0.138860,2.728559,325.851204,0.079269,0.000756,0.975934,0.403479,-0.264437,9.277521,0.014259,-0.154590,0.088152,0.388751,-0.134512,-0.889497,98940.0000
1779272932682365358,2026-05-20 15:58:52.681,0.126238,3.622899,325.310493,0.121088,0.003651,0.976407,1.268219,0.322734,10.391922,0.012594,-0.137932,0.080696,0.381390,-0.138379,-0.897614,98936.0000
1779272932782333229,2026-05-20 15:58:52.781,0.105385,4.150298,324.855999,0.153834,0.003300,0.976122,1.293618,0.287262,9.863128,0.002674,-0.048939,0.073595,0.377718,-0.142360,-0.900424,98934.0000
1779272932882503340,2026-05-20 15:58:52.881,0.083459,4.035123,324.476398,0.155336,0.002643,0.973497,0.842225,-0.079491,9.240528,0.014348,0.080658,0.068407,0.377124,-0.145890,-0.898825,98935.0000
1779272932982397006,2026-05-20 15:58:52.981,0.072108,3.351290,324.143597,0.127932,0.005841,0.971845,1.547578,0.398822,9.872722,0.000201,0.157787,0.050723,0.381066,-0.149022,-0.894951,98931.0000
1779272933082053562,2026-05-20 15:58:53.080,0.075084,2.396047,323.833130,0.075622,0.002629,0.971256,0.722513,-0.353634,9.647550,-0.007138,0.163568,0.049590,0.384207,-0.150826,-0.886290,98936.0000
1779272933181969117,2026-05-20 15:58:53.180,0.086613,1.652040,323.542110,0.021869,-0.000686,0.977835,0.162114,0.019249,9.918081,0.003138,0.094748,0.052112,0.389663,-0.152741,-0.881884,98938.0000
1779272933282609839,2026-05-20 15:58:53.281,0.097995,1.442951,323.272293,-0.006368,0.002707,0.981499,0.266337,0.073955,9.895673,-0.006358,-0.007392,0.043617,0.389966,-0.154795,-0.880943,98938.0000
1779272933382456747,2026-05-20 15:58:53.381,0.097396,1.712123,323.025188,-0.000287,-0.001595,0.980925,0.415495,-0.550614,9.749099,0.000628,-0.082538,0.042994,0.388435,-0.157510,-0.881739,98946.0000
1779272933482466747,2026-05-20 15:58:53.481,0.091898,2.202689,322.776348,0.030046,-0.000138,0.980585,0.170872,0.215454,9.731973,0.000912,-0.092559,0.044077,0.385639,-0.159754,-0.886412,98941.0000
1779272933582115524,2026-05-20 15:58:53.580,0.095669,2.602587,322.515118,0.064945,0.000442,0.981078,0.632793,0.384821,9.820042,-0.003062,-0.036404,0.044303,0.380801,-0.159864,-0.888986,98940.0000
1779272933682366024,2026-05-20 15:58:53.681,0.100178,2.689021,322.256062,0.070944,0.000546,0.975032,0.721199,-0.242180,9.681938,0.003491,0.017612,0.039463,0.379595,-0.162243,-0.888598,98923.0000
1779272933782309950,2026-05-20 15:58:53.781,0.093250,2.415331,322.008324,0.066023,-0.001004,0.975866,0.602813,0.291243,9.848527,0.007730,0.056948,0.044735,0.380819,-0.165726,-0.885847,98942.0000
1779272933882108913,2026-05-20 15:58:53.880,0.096129,1.999591,321.771793,0.050234,0.001434,0.979033,0.060891,-0.230171,9.618923,-0.002159,0.089669,0.037625,0.383835,-0.166258,-0.884411,98935.0000
1779272933982669913,2026-05-20 15:58:53.981,0.108425,1.632439,321.536598,0.020427,0.000287,0.976432,0.218386,-0.190267,9.746390,-0.006662,0.048017,0.037106,0.384769,-0.168254,-0.881688,98940.0000
1779272934082255302,2026-05-20 15:58:54.080,0.114187,1.465193,321.310024,0.007262,0.000385,0.978513,0.208575,0.138194,9.939863,0.000604,0.002336,0.039127,0.383311,-0.168498,-0.879545,98925.0000
1779272934182227320,2026-05-20 15:58:54.180,0.108343,1.528267,321.097557,0.007316,-0.001674,0.978870,-0.029629,-0.215248,9.631916,0.004050,-0.035220,0.037790,0.386266,-0.171483,-0.880449,98935.0000
1779272934282093820,2026-05-20 15:58:54.280,0.084328,1.767964,320.904190,0.019755,-0.000097,0.979465,0.177648,0.228023,9.676225,0.008606,-0.043991,0.029035,0.382334,-0.173048,-0.882110,98938.0000
1779272934382681302,2026-05-20 15:58:54.381,0.059157,2.019669,320.768166,0.033629,0.003143,0.977374,0.912181,0.176727,10.024365,0.006751,-0.034361,0.019561,0.379613,-0.173110,-0.883539,98946.0000
1779272934482465690,2026-05-20 15:58:54.481,0.038159,2.175375,320.674885,0.041545,-0.000371,0.975403,0.605423,-0.452449,9.790781,0.002609,-0.019890,0.020320,0.377779,-0.176422,-0.884313,98934.0000
1779272934582385542,2026-05-20 15:58:54.581,0.036977,2.215085,320.600277,0.046320,0.000759,0.977485,0.523217,-0.005792,9.790683,-0.000794,0.005355,0.014065,0.377201,-0.173449,-0.884369,98932.0000
1779272934682313005,2026-05-20 15:58:54.680,0.047977,2.141238,320.551773,0.040736,0.000184,0.977823,0.442965,-0.010579,9.738837,-0.001291,0.019876,0.007259,0.379593,-0.175202,-0.883789,98938.0000
1779272934782470431,2026-05-20 15:58:54.781,0.058282,2.020043,320.528111,0.036016,-0.001171,0.978684,0.474721,0.026356,9.986884,0.003468,0.023682,0.001067,0.379900,-0.175777,-0.883183,98925.0000
1779272934882308227,2026-05-20 15:58:54.881,0.069466,1.942635,320.532108,0.028227,-0.002423,0.979788,0.166183,0.258128,9.733603,-0.003292,0.008690,-0.005068,0.380510,-0.175756,-0.882599,98936.0000
1779272934982130672,2026-05-20 15:58:54.980,0.073541,1.936309,320.540749,0.023319,-0.004760,0.978874,0.273077,-0.018026,9.758258,-0.004068,-0.005520,-0.003853,0.379896,-0.176373,-0.883169,98930.0000
1779272935082818838,2026-05-20 15:58:55.081,0.075156,1.998212,320.543255,0.028722,-0.004005,0.979826,0.564373,-0.244203,9.772154,0.002409,-0.007995,-0.003510,0.380214,-0.176046,-0.882284,98930.0000
1779272935182375135,2026-05-20 15:58:55.181,0.075057,2.093478,320.546326,0.028145,-0.004664,0.976414,0.156620,-0.354464,9.635949,-0.000753,-0.021757,-0.001737,0.379003,-0.174899,-0.883481,98939.0000
1779272935282346320,2026-05-20 15:58:55.281,0.074384,2.158511,320.562687,0.035773,-0.002906,0.977162,0.583769,-0.149105,9.708596,-0.005975,-0.015034,-0.008534,0.378092,-0.176104,-0.883729,98939.0000
1779272935382093301,2026-05-20 15:58:55.380,0.075455,2.188991,320.593430,0.039356,-0.005043,0.976885,0.189335,-0.459231,9.642933,-0.001001,0.007184,-0.008621,0.377198,-0.175514,-0.883720,98942.0000
1779272935482710986,2026-05-20 15:58:55.481,0.065849,2.179411,320.637547,0.035771,-0.002263,0.976496,0.516062,-0.119045,9.566899,0.001000,0.003143,-0.011561,0.378410,-0.174010,-0.883487,98935.0000
1779272935582514505,2026-05-20 15:58:55.581,0.061466,2.147182,320.696083,0.036003,-0.004210,0.979369,0.270554,-0.189056,9.649415,-0.002395,0.008620,-0.012628,0.379022,-0.173691,-0.882911,98927.0000
1779272935682333597,2026-05-20 15:58:55.681,0.060691,2.127373,320.765270,0.033701,-0.004093,0.979793,0.638931,-0.151504,9.916512,-0.007086,0.001849,-0.019684,0.379605,-0.174300,-0.883511,98934.0000
1779272935782331764,2026-05-20 15:58:55.781,0.063712,2.133916,320.842190,0.031366,-0.004492,0.977718,0.401362,0.063803,9.757405,0.001498,-0.007125,-0.018582,0.379624,-0.173976,-0.882619,98934.0000
1779272935882519542,2026-05-20 15:58:55.881,0.055336,2.152623,320.934475,0.031711,-0.005143,0.977602,0.162107,0.308533,9.722554,0.007509,-0.003904,-0.012305,0.379327,-0.173680,-0.882619,98934.0000
1779272935982366412,2026-05-20 15:58:55.981,0.039864,2.177407,321.045982,0.035265,-0.004513,0.978048,0.381093,0.133881,9.975878,0.003343,-0.003878,-0.021522,0.381692,-0.171943,-0.884820,98940.0000
1779272936082212393,2026-05-20 15:58:56.080,0.028545,2.210414,321.177868,0.037398,-0.005372,0.979294,0.362542,-0.123981,10.126974,-0.001275,-0.002158,-0.017367,0.378987,-0.171391,-0.885664,98933.0000
1779272936182601875,2026-05-20 15:58:56.181,0.028714,2.230015,321.320641,0.036386,-0.003144,0.977889,0.175518,-0.257854,9.774101,-0.002326,0.001597,-0.017662,0.381687,-0.169301,-0.886083,98930.0000
1779272936282380152,2026-05-20 15:58:56.281,0.030881,2.220280,321.464165,0.033373,-0.004490,0.976195,0.239950,-0.159212,9.620511,0.001233,-0.007718,-0.020938,0.380210,-0.168985,-0.885153,98932.0000
1779272936382251189,2026-05-20 15:58:56.380,0.032105,2.207225,321.603123,0.039540,-0.005006,0.978628,0.276402,-0.082065,9.518967,-0.000635,0.001529,-0.025743,0.381723,-0.166298,-0.885256,98937.0000
1779272936481981300,2026-05-20 15:58:56.480,0.031844,2.224290,321.747025,0.037384,-0.005302,0.977930,0.740944,-0.105265,9.904502,-0.003524,0.010406,-0.032052,0.380826,-0.167187,-0.884912,98938.0000
1779272936582514393,2026-05-20 15:58:56.581,0.025072,2.229969,321.898266,0.033515,-0.003962,0.977177,0.665429,0.222794,9.782198,-0.008811,-0.002906,-0.035134,0.383822,-0.165689,-0.885324,98937.0000
1779272936682379485,2026-05-20 15:58:56.681,0.024440,2.209115,322.058914,0.035093,-0.005760,0.977627,0.266057,-0.011220,9.577890,0.004414,-0.001506,-0.028982,0.383553,-0.163581,-0.884468,98932.0000
1779272936782292782,2026-05-20 15:58:56.781,0.028085,2.187179,322.219372,0.037070,-0.006908,0.980458,0.381389,-0.102731,9.806691,0.000403,0.012975,-0.024738,0.384155,-0.162982,-0.884498,98943.0000
1779272936882226319,2026-05-20 15:58:56.880,0.029649,2.173004,322.376556,0.032054,-0.004054,0.977646,0.727466,-0.127881,9.854496,-0.002751,-0.000251,-0.029476,0.383595,-0.161453,-0.883020,98929.0000
1779272936982344856,2026-05-20 15:58:56.981,0.023278,2.150332,322.530109,0.032391,-0.006147,0.977878,0.138853,-0.148225,9.808849,-0.002586,-0.004016,-0.027347,0.384451,-0.161808,-0.885133,98938.0000
1779272937082086004,2026-05-20 15:58:57.080,0.021873,2.140787,322.694466,0.037619,-0.005206,0.979415,0.194656,0.233727,9.896247,0.004770,0.010294,-0.030313,0.384190,-0.159393,-0.883985,98937.0000
1779272937182033041,2026-05-20 15:58:57.180,0.022621,2.154047,322.873573,0.031906,-0.005687,0.976196,0.239036,-0.205787,9.937966,0.004022,0.008721,-0.026087,0.385109,-0.156998,-0.883766,98936.0000
1779272937282652078,2026-05-20 15:58:57.281,0.013997,2.148357,323.062946,0.030364,-0.005564,0.976302,0.075143,-0.025831,9.667979,0.006285,-0.009678,-0.027828,0.386010,-0.156397,-0.883803,98940.0000
1779272937382530818,2026-05-20 15:58:57.381,0.004608,2.147809,323.256813,0.036866,-0.003930,0.979642,0.130954,-0.006114,9.546310,-0.002218,0.006239,-0.037683,0.386618,-0.154022,-0.884176,98940.0000
1779272937482419744,2026-05-20 15:58:57.481,0.008389,2.158075,323.454853,0.032989,-0.006834,0.978093,0.340050,-0.045960,9.790479,0.000555,0.006098,-0.034588,0.386646,-0.154861,-0.882357,98934.0000
1779272937582217874,2026-05-20 15:58:57.580,0.013487,2.161363,323.651215,0.032552,-0.006164,0.977904,0.603032,-0.103585,9.875229,-0.000043,0.003921,-0.028586,0.388425,-0.152225,-0.884265,98938.0000
1779272937682659337,2026-05-20 15:58:57.681,0.028507,2.172050,323.848183,0.034322,-0.005617,0.977519,0.363124,-0.128110,9.710498,-0.004204,-0.002725,-0.033750,0.387509,-0.149904,-0.886096,98931.0000
1779272937782393189,2026-05-20 15:58:57.781,0.046153,2.186478,324.047665,0.035615,-0.007746,0.977801,0.141246,-0.303944,9.508595,-0.000096,0.002492,-0.030373,0.388161,-0.149522,-0.883423,98934.0000
1779272937882194522,2026-05-20 15:58:57.880,0.052618,2.186508,324.237244,0.032470,-0.005327,0.976660,0.399869,0.013235,9.547254,-0.002799,-0.003005,-0.030730,0.389333,-0.147197,-0.885608,98933.0000
1779272937983450411,2026-05-20 15:58:57.982,0.047613,2.168698,324.414162,0.033053,-0.007484,0.978537,0.135206,-0.000481,9.585843,-0.000874,0.004684,-0.036401,0.389646,-0.145112,-0.885666,98936.0000
1779272938081447781,2026-05-20 15:58:58.080,0.038127,2.152527,324.580143,0.035366,-0.006688,0.979198,0.434887,0.342721,9.679505,0.004167,0.005534,-0.035773,0.390875,-0.144464,-0.884213,98934.0000
1779272938182679151,2026-05-20 15:58:58.181,0.027149,2.149379,324.766098,0.031292,-0.006780,0.977365,0.147591,-0.023188,9.612141,0.002189,-0.002125,-0.035383,0.390601,-0.142365,-0.883657,98936.0000
1779272938282301577,2026-05-20 15:58:58.280,0.016783,2.159161,324.954121,0.031757,-0.006901,0.977642,0.400399,-0.012145,9.848376,0.006174,-0.008425,-0.028028,0.391214,-0.140864,-0.883408,98938.0000
1779272938382779892,2026-05-20 15:58:58.381,0.012641,2.176675,325.136082,0.034188,-0.006244,0.977821,0.016619,-0.303796,9.536324,0.004710,0.004980,-0.028116,0.390302,-0.139716,-0.884613,98935.0000
1779272938482332614,2026-05-20 15:58:58.481,0.013934,2.202698,325.303463,0.034326,-0.005889,0.977894,0.406450,-0.303896,9.601049,-0.001950,-0.001037,-0.031159,0.391198,-0.139124,-0.884949,98936.0000
1779272938582122744,2026-05-20 15:58:58.580,0.017642,2.205074,325.470654,0.035012,-0.003989,0.978744,0.387773,-0.344196,9.663378,-0.002642,0.005145,-0.030286,0.392718,-0.137014,-0.884439,98935.0000
1779272938681976151,2026-05-20 15:58:58.680,0.025920,2.201124,325.649189,0.036529,-0.006173,0.978981,0.319921,-0.117910,9.644220,0.000648,0.005869,-0.031944,0.392147,-0.136386,-0.883240,98938.0000
1779272938782637169,2026-05-20 15:58:58.781,0.033858,2.204806,325.822945,0.033213,-0.006735,0.979344,0.580034,-0.070429,9.789865,-0.003824,0.002746,-0.035994,0.391840,-0.134927,-0.884167,98942.0000
1779272938882502762,2026-05-20 15:58:58.881,0.027188,2.201099,325.982876,0.033453,-0.007049,0.977205,0.264566,0.185309,9.743663,0.006129,-0.001330,-0.031040,0.393342,-0.133141,-0.884548,98936.0000
1779272938982394836,2026-05-20 15:58:58.981,0.011214,2.201378,326.136169,0.039001,-0.006736,0.978733,0.624693,0.358733,9.950573,0.005421,0.000014,-0.034546,0.392475,-0.131920,-0.883355,98932.0000
1779272939082727651,2026-05-20 15:58:59.081,-0.006394,2.190795,326.289677,0.034579,-0.005416,0.976449,0.495917,0.088425,9.876034,0.000926,0.005847,-0.029088,0.393326,-0.130517,-0.886410,98936.0000
1779272939182422891,2026-05-20 15:58:59.181,-0.013990,2.155854,326.435253,0.030669,-0.004856,0.977397,0.103315,-0.004355,9.694214,0.001213,0.001047,-0.016300,0.393375,-0.128966,-0.884349,98937.0000
1779272939282228447,2026-05-20 15:58:59.280,-0.010828,2.123877,326.581802,0.032698,-0.003633,0.978456,-0.158484,-0.039188,9.704168,0.001826,0.006319,-0.023154,0.395768,-0.128951,-0.884410,98936.0000
1779272939382043428,2026-05-20 15:58:59.380,0.002622,2.131588,326.715153,0.031461,-0.006297,0.978795,0.175997,-0.089930,9.832377,0.001909,-0.000404,-0.016368,0.396085,-0.127155,-0.884161,98936.0000
1779272939482583650,2026-05-20 15:58:59.481,0.005168,2.153475,326.843094,0.031181,-0.003852,0.977400,0.252157,-0.046444,9.591816,-0.003081,-0.013180,-0.023003,0.395455,-0.126915,-0.885950,98938.0000
1779272939582424724,2026-05-20 15:58:59.581,0.004523,2.179097,326.966698,0.034289,-0.005969,0.978161,0.371414,-0.230427,9.763313,0.002996,-0.005175,-0.023963,0.393982,-0.126004,-0.885035,98934.0000
1779272939682311650,2026-05-20 15:58:59.681,-0.001452,2.208893,327.081963,0.038307,-0.004227,0.978734,0.428702,0.108588,9.764386,0.000726,0.002848,-0.024682,0.394904,-0.123898,-0.884509,98932.0000
1779272939782227484,2026-05-20 15:58:59.780,-0.011426,2.221454,327.214680,0.032715,-0.003259,0.975965,0.509973,0.215039,10.121853,-0.002394,-0.006858,-0.032878,0.394594,-0.123917,-0.885100,98939.0000
1779272939882537595,2026-05-20 15:58:59.881,-0.021774,2.197198,327.359421,0.036745,-0.005224,0.978550,0.259583,0.361478,9.864386,0.005206,0.001440,-0.023758,0.394899,-0.121255,-0.885772,98938.0000
1779272939982289613,2026-05-20 15:58:59.981,-0.022087,2.188057,327.511559,0.034940,-0.004818,0.978463,0.287465,0.127205,9.890182,0.003926,-0.002715,-0.025401,0.396722,-0.122083,-0.883999,98935.0000
1779272940082058558,2026-05-20 15:59:00.080,-0.009410,2.180503,327.652004,0.033267,-0.005916,0.979039,0.382556,0.035046,9.742633,0.006673,0.005412,-0.007825,0.397311,-0.120916,-0.884942,98937.0000
1779272940182788169,2026-05-20 15:59:00.181,0.007591,2.176993,327.784184,0.032847,-0.004702,0.977653,0.026565,-0.006826,9.723061,0.003888,-0.002563,-0.018545,0.397618,-0.119724,-0.884978,98937.0000
1779272940282627298,2026-05-20 15:59:00.281,0.029718,2.195153,327.909756,0.034349,-0.006778,0.978047,0.306759,-0.302371,9.937842,0.003800,-0.001401,-0.015995,0.396727,-0.117953,-0.885298,98938.0000
1779272940382480687,2026-05-20 15:59:00.381,0.038947,2.216225,328.030272,0.034330,-0.005986,0.975726,-0.004657,-0.205216,9.647004,0.003958,-0.005704,-0.014450,0.397032,-0.117058,-0.885327,98933.0000
1779272940481938113,2026-05-20 15:59:00.480,0.024933,2.246220,328.154570,0.035487,-0.007172,0.977444,0.424073,-0.381731,9.852640,0.005531,-0.002457,-0.018186,0.398863,-0.114928,-0.884225,98934.0000
1779272940582567798,2026-05-20 15:59:00.581,0.007875,2.260906,328.273026,0.037030,-0.005280,0.978990,0.572139,-0.351047,9.870131,0.010887,-0.001350,-0.013060,0.397034,-0.114993,-0.885976,98935.0000
1779272940682344446,2026-05-20 15:59:00.681,-0.007400,2.278776,328.378277,0.036797,-0.005143,0.980583,0.117883,-0.228829,9.760682,0.010574,0.002558,-0.013149,0.397941,-0.114383,-0.885714,98942.0000
1779272940782345298,2026-05-20 15:59:00.781,-0.009936,2.241847,328.487949,0.036182,-0.002207,0.978926,0.249057,-0.192929,9.763183,-0.000326,0.006327,-0.014886,0.398256,-0.113768,-0.885137,98937.0000
1779272940882127761,2026-05-20 15:59:00.880,-0.002087,2.203210,328.606825,0.033993,-0.004161,0.977531,0.220156,-0.432997,9.762729,-0.003751,0.000933,-0.012249,0.398256,-0.111117,-0.886100,98931.0000
1779272940982761872,2026-05-20 15:59:00.981,0.006540,2.206820,328.730732,0.034997,-0.004013,0.977212,0.480103,-0.110029,9.705590,-0.000167,-0.004708,-0.017508,0.398247,-0.112605,-0.886065,98937.0000
1779272941082464261,2026-05-20 15:59:01.081,0.009092,2.242543,328.855440,0.035646,-0.006705,0.976647,0.545195,-0.185517,9.858907,0.001398,-0.004782,-0.018008,0.398875,-0.110491,-0.885232,98943.0000
1779272941183614261,2026-05-20 15:59:01.182,0.009264,2.275137,328.982998,0.034609,-0.004450,0.976133,0.151412,-0.017095,9.518074,-0.001609,-0.006092,-0.026630,0.398569,-0.109032,-0.886159,98939.0000
1779272941282709242,2026-05-20 15:59:01.281,0.003307,2.296061,329.112354,0.037493,-0.004840,0.979263,0.146193,0.421643,9.640085,0.006389,-0.007165,-0.021772,0.398560,-0.108752,-0.886765,98934.0000
1779272941382505964,2026-05-20 15:59:01.381,0.002400,2.298588,329.237749,0.039205,-0.005998,0.979070,0.231052,0.349950,9.761105,0.004357,0.004818,-0.018365,0.397371,-0.109337,-0.886121,98933.0000
1779272941482424334,2026-05-20 15:59:01.481,0.008804,2.293993,329.359245,0.035061,-0.004427,0.977964,0.835250,0.223648,10.146055,-0.004374,-0.003157,-0.026356,0.399488,-0.106637,-0.885940,98940.0000
1779272941582209649,2026-05-20 15:59:01.580,0.003823,2.257517,329.465004,0.037174,-0.006398,0.977599,0.552115,0.005639,9.787756,-0.007019,0.000780,-0.019706,0.399802,-0.105138,-0.885683,98934.0000
1779272941682849538,2026-05-20 15:59:01.681,-0.000331,2.220810,329.547602,0.038346,-0.005468,0.979312,0.391486,-0.003335,9.755892,-0.000767,0.010005,-0.015316,0.400975,-0.104580,-0.887226,98934.0000
1779272941782765038,2026-05-20 15:59:01.781,-0.009155,2.180796,329.613386,0.032063,-0.005704,0.977105,0.243917,-0.452953,9.747019,-0.003821,0.005287,-0.010990,0.398310,-0.104552,-0.885660,98931.0000
1779272941882200131,2026-05-20 15:59:01.880,-0.015205,2.140436,329.656847,0.032060,-0.002821,0.977933,0.270610,-0.257825,9.872162,-0.001343,0.004767,-0.002851,0.399507,-0.103661,-0.886012,98936.0000
1779272941983420797,2026-05-20 15:59:01.982,-0.014851,2.123081,329.684216,0.030953,-0.002709,0.978143,0.497192,-0.105127,9.962861,0.002950,-0.003402,0.001335,0.400147,-0.103297,-0.883937,98938.0000
1779272942082644871,2026-05-20 15:59:02.081,-0.002379,2.136058,329.705233,0.032487,-0.003959,0.978865,0.146309,-0.064437,9.756851,0.007905,-0.001469,0.003609,0.401361,-0.102379,-0.883390,98936.0000
1779272942182474556,2026-05-20 15:59:02.181,0.007436,2.163880,329.733255,0.031656,-0.002557,0.977553,0.126970,-0.181519,9.722277,0.004228,-0.007616,-0.002309,0.400414,-0.103935,-0.885428,98938.0000
1779272942282122593,2026-05-20 15:59:02.280,0.009949,2.190281,329.765724,0.034586,-0.003089,0.977453,0.254799,0.049935,9.756636,0.005847,-0.003760,-0.007443,0.400427,-0.103619,-0.884836,98927.0000
1779272942382694575,2026-05-20 15:59:02.381,0.009681,2.215425,329.790028,0.036379,-0.003344,0.978305,0.905645,-0.020949,9.811510,0.002791,-0.008131,-0.002623,0.401286,-0.102793,-0.887277,98936.0000
1779272942482510297,2026-05-20 15:59:02.481,0.011259,2.204816,329.807455,0.037895,-0.003031,0.978446,0.438040,0.115244,9.580294,0.002553,0.001616,-0.006225,0.400414,-0.103051,-0.885749,98934.0000
1779272942582387223,2026-05-20 15:59:02.581,0.013860,2.180109,329.816513,0.035026,-0.002881,0.979190,0.290063,-0.302117,9.727136,-0.007992,0.008083,-0.008043,0.400715,-0.102752,-0.885764,98935.0000
1779272942682201056,2026-05-20 15:59:02.680,0.009402,2.151210,329.817278,0.033177,-0.004319,0.977990,0.380721,-0.142689,9.989398,0.000555,0.002945,0.000474,0.399530,-0.103625,-0.884813,98929.0000
1779272942782810389,2026-05-20 15:59:02.781,0.006515,2.153214,329.812920,0.034752,-0.002687,0.977426,0.329233,0.054284,9.890306,0.010083,0.010272,0.004146,0.400992,-0.101902,-0.887291,98934.0000
1779272942882489667,2026-05-20 15:59:02.881,0.010732,2.172720,329.810526,0.031988,-0.002662,0.977575,0.290937,0.139695,9.811438,0.008943,-0.001564,0.009978,0.398625,-0.102169,-0.885725,98940.0000
1779272942982267241,2026-05-20 15:59:02.980,0.006529,2.161481,329.813148,0.031095,-0.001887,0.976539,-0.194176,0.157364,9.614004,-0.005962,-0.013567,0.007239,0.400732,-0.102725,-0.884866,98935.0000
1779272943082018611,2026-05-20 15:59:03.080,0.007125,2.166102,329.801043,0.038787,-0.002888,0.979432,0.302439,0.098228,9.749413,-0.002976,0.000969,0.001836,0.400698,-0.102779,-0.886663,98940.0000
1779272943182638333,2026-05-20 15:59:03.181,0.008268,2.192373,329.781309,0.034153,-0.003199,0.977509,0.119477,0.028030,9.739954,0.002939,-0.001767,0.004936,0.399218,-0.102175,-0.886040,98938.0000
1779272943282183815,2026-05-20 15:59:03.280,0.010110,2.206254,329.760082,0.033302,-0.001901,0.976978,0.362427,-0.436578,9.790455,0.001624,-0.006592,0.006360,0.399816,-0.103055,-0.885734,98936.0000
1779272943382378481,2026-05-20 15:59:03.381,0.011300,2.218031,329.742054,0.036809,-0.002115,0.978118,0.500153,0.076349,10.005104,0.003526,-0.003129,0.003527,0.400698,-0.102779,-0.886663,98936.0000
1779272943482547278,2026-05-20 15:59:03.481,0.008687,2.224363,329.739691,0.035496,-0.001832,0.978793,0.433208,0.329796,9.719859,0.002120,-0.004900,-0.000526,0.399825,-0.103335,-0.885127,98932.0000
1779272943582480574,2026-05-20 15:59:03.581,-0.002049,2.209682,329.743542,0.036725,-0.002945,0.979430,0.641642,0.057165,9.687385,0.002733,0.001932,-0.002258,0.399210,-0.105133,-0.885369,98932.0000
1779272943682271222,2026-05-20 15:59:03.681,-0.005580,2.203221,329.750185,0.035408,-0.003038,0.978255,0.175120,-0.013624,9.739506,0.001014,-0.004486,-0.000021,0.401308,-0.101873,-0.886400,98938.0000
1779272943781899074,2026-05-20 15:59:03.780,-0.006176,2.214365,329.738932,0.035593,-0.003428,0.976746,0.625273,-0.273751,9.718241,0.000215,-0.002540,0.003491,0.399504,-0.103372,-0.886318,98937.0000
1779272943882743870,2026-05-20 15:59:03.881,0.002715,2.225972,329.741333,0.034882,-0.000012,0.977446,0.435973,0.437334,9.771152,0.002768,0.000206,-0.002088,0.398905,-0.102492,-0.886624,98934.0000
1779272943982337463,2026-05-20 15:59:03.980,0.020821,2.219074,329.771441,0.038067,-0.002928,0.978915,0.403261,-0.155576,9.763330,-0.003746,-0.003367,-0.009666,0.400427,-0.102736,-0.885157,98938.0000
1779272944082109240,2026-05-20 15:59:04.080,0.035780,2.219839,329.795980,0.037993,-0.005475,0.978330,0.344741,-0.321106,9.827681,0.001630,0.004301,-0.000108,0.398638,-0.101854,-0.885133,98936.0000
1779272944183549425,2026-05-20 15:59:04.182,0.035478,2.209669,329.795847,0.034929,-0.005040,0.977778,0.285918,0.662226,9.782085,-0.004149,-0.001820,0.007136,0.399224,-0.102166,-0.885740,98936.0000
1779272944282714499,2026-05-20 15:59:04.281,0.029312,2.202816,329.785660,0.036333,-0.004963,0.977248,0.313272,-0.329625,9.515631,0.002757,0.004227,0.002522,0.399816,-0.102171,-0.886055,98931.0000
1779272944382189148,2026-05-20 15:59:04.380,0.016917,2.198437,329.768288,0.033688,-0.002953,0.977352,0.401651,-0.485873,9.585958,0.001208,0.000060,0.002920,0.399836,-0.103317,-0.884528,98936.0000
1779272944482078499,2026-05-20 15:59:04.480,0.002930,2.176263,329.757227,0.035365,-0.003444,0.980097,0.648864,0.347968,9.950232,0.006428,0.002798,0.010437,0.401310,-0.103343,-0.885765,98936.0000
1779272944582588536,2026-05-20 15:59:04.581,0.002807,2.177256,329.748320,0.034378,-0.001065,0.978499,0.439095,0.124788,9.795419,0.000508,0.003182,0.004097,0.400102,-0.103369,-0.886333,98936.0000
1779272944682433721,2026-05-20 15:59:04.681,0.006945,2.176973,329.727495,0.032707,-0.001971,0.976699,0.335399,-0.305856,9.671789,0.004232,-0.001448,0.006535,0.400990,-0.103083,-0.886963,98940.0000
1779272944782375888,2026-05-20 15:59:04.781,0.016664,2.187406,329.698473,0.035778,-0.002216,0.977624,0.651112,0.457307,9.943299,-0.002644,-0.002479,0.005062,0.400711,-0.103347,-0.885750,98940.0000
1779272944882273499,2026-05-20 15:59:04.880,0.026616,2.216142,329.674318,0.037760,-0.003446,0.978217,0.568470,-0.084593,9.784226,0.002207,0.003212,-0.000724,0.398884,-0.103998,-0.887187,98938.0000
1779272944982758184,2026-05-20 15:59:04.981,0.024494,2.219422,329.642582,0.033796,-0.003114,0.977261,0.087743,-0.111604,9.881104,-0.004226,-0.000364,0.001814,0.399501,-0.105437,-0.885669,98938.0000
1779272945082362592,2026-05-20 15:59:05.081,0.011732,2.220198,329.598627,0.036554,-0.004930,0.978241,0.149676,0.013740,9.561079,-0.000616,-0.004953,0.012931,0.401302,-0.102766,-0.886379,98940.0000
1779272945182381814,2026-05-20 15:59:05.181,0.001402,2.195669,329.568327,0.039453,-0.002541,0.980330,-0.083023,0.010753,9.754398,0.004367,0.007519,0.009045,0.398595,-0.104279,-0.886573,98941.0000
1779272945282978351,2026-05-20 15:59:05.281,-0.004479,2.170818,329.542128,0.035404,-0.000409,0.978212,0.631471,-0.061333,9.873630,-0.002791,0.004008,-0.000884,0.400119,-0.105109,-0.884792,98937.0000
1779272945382390591,2026-05-20 15:59:05.381,-0.010016,2.134694,329.510406,0.030518,-0.003307,0.976187,0.121093,-0.017179,10.047874,0.003281,-0.010529,0.003760,0.399806,-0.104543,-0.885698,98936.0000
1779272945482240591,2026-05-20 15:59:05.480,-0.006648,2.123421,329.479046,0.038638,-0.001025,0.979221,0.061323,0.391933,9.549635,-0.000443,-0.002433,0.005704,0.397697,-0.104285,-0.886550,98936.0000
1779272945582062110,2026-05-20 15:59:05.580,0.006540,2.143968,329.451677,0.036308,-0.002536,0.978192,0.732101,-0.168800,9.679072,0.000886,0.006761,0.006277,0.399787,-0.105751,-0.886268,98936.0000
1779272945682670739,2026-05-20 15:59:05.681,0.007907,2.156153,329.420286,0.028928,-0.003717,0.974679,0.255737,0.022891,9.799289,0.001361,-0.014331,0.011078,0.398856,-0.106694,-0.887722,98936.0000
1779272945782616054,2026-05-20 15:59:05.781,0.005641,2.167692,329.375374,0.036412,-0.002271,0.977937,0.119446,-0.071664,9.539599,-0.001021,-0.010291,0.008192,0.398910,-0.105134,-0.885361,98939.0000
1779272945882461036,2026-05-20 15:59:05.881,0.008724,2.191875,329.327946,0.040540,-0.001695,0.980899,0.784362,0.161952,9.886474,-0.001929,0.000879,0.007986,0.398291,-0.106644,-0.885909,98934.0000
1779272945982307591,2026-05-20 15:59:05.981,0.009770,2.185173,329.277601,0.033611,-0.001855,0.978138,0.457418,-0.291135,9.619710,0.001138,0.001558,0.006073,0.399732,-0.108195,-0.888308,98936.0000
1779272946082625221,2026-05-20 15:59:06.081,0.006779,2.143900,329.236296,0.034813,-0.001792,0.978404,0.148492,-0.184494,9.751945,-0.000659,0.009338,0.003433,0.397997,-0.107521,-0.885281,98936.0000
1779272946182707295,2026-05-20 15:59:06.181,0.004490,2.113178,329.206976,0.034913,-0.003054,0.977833,0.050326,-0.031922,9.798180,0.005176,-0.002059,0.005262,0.398310,-0.107203,-0.884696,98941.0000
1779272946282526258,2026-05-20 15:59:06.281,0.013767,2.129149,329.199394,0.036744,-0.001857,0.977728,0.337872,-0.175156,9.643219,0.005558,0.003675,0.002300,0.398014,-0.107494,-0.884382,98936.0000
1779272946382613202,2026-05-20 15:59:06.381,0.017356,2.166199,329.192598,0.032233,-0.000716,0.975746,0.977957,-0.095620,9.747162,-0.004406,-0.010645,-0.000204,0.398891,-0.108110,-0.885289,98940.0000
1779272946482465517,2026-05-20 15:59:06.481,0.006943,2.169546,329.187862,0.035497,-0.004577,0.977819,0.016968,-0.226205,9.733697,0.004146,-0.012379,0.005655,0.398280,-0.107546,-0.886187,98932.0000
1779272946582339109,2026-05-20 15:59:06.581,0.009403,2.189825,329.179356,0.043206,-0.002221,0.980597,0.268926,0.175650,9.814458,0.008912,0.017512,-0.002419,0.398272,-0.109620,-0.885837,98940.0000
1779272946682160591,2026-05-20 15:59:06.680,0.016462,2.205836,329.160702,0.032025,-0.000666,0.974924,0.695246,0.112284,9.770651,-0.009616,-0.001219,0.000975,0.397986,-0.109306,-0.885237,98938.0000
1779272946782800942,2026-05-20 15:59:06.781,0.017896,2.198378,329.137955,0.031311,-0.004505,0.976248,-0.094296,0.007886,9.751719,0.002002,-0.015770,0.008653,0.398283,-0.107835,-0.885880,98940.0000
1779272946882328609,2026-05-20 15:59:06.881,0.031075,2.212856,329.112700,0.040488,-0.002627,0.980482,0.032620,0.019733,9.466169,0.002589,0.002167,0.004344,0.396738,-0.108511,-0.888224,98934.0000
1779272946982563702,2026-05-20 15:59:06.981,0.040832,2.263408,329.087063,0.039497,-0.002723,0.980355,0.965357,0.019429,9.872768,-0.007489,-0.000862,-0.002646,0.397982,-0.108134,-0.885865,98940.0000
1779272947082216405,2026-05-20 15:59:07.080,0.037095,2.290372,329.061544,0.035594,-0.005937,0.976946,0.133058,-0.034301,9.930071,0.003156,-0.016753,0.004674,0.397937,-0.109089,-0.887941,98938.0000
1779272947182521720,2026-05-20 15:59:07.181,0.020079,2.289238,329.041300,0.044016,-0.001823,0.977928,0.069897,0.172507,9.574425,0.002890,0.001494,0.004314,0.396472,-0.107872,-0.886733,98938.0000
1779272947282406442,2026-05-20 15:59:07.281,0.015973,2.275139,329.023722,0.043059,-0.001269,0.977465,0.412946,0.010956,9.768405,-0.001025,0.010280,0.001311,0.397967,-0.109631,-0.886129,98932.0000
1779272947382231238,2026-05-20 15:59:07.380,0.016045,2.235118,329.009684,0.037277,-0.003680,0.976302,0.350981,0.021768,9.980885,0.002108,0.002485,0.002212,0.397065,-0.110231,-0.886092,98940.0000
1779272947482248275,2026-05-20 15:59:07.480,0.018821,2.196518,329.001732,0.035721,-0.001483,0.976798,0.332309,-0.029694,9.751117,0.005421,-0.003001,0.001818,0.397960,-0.108170,-0.887064,98940.0000
1779272947582453368,2026-05-20 15:59:07.581,0.020543,2.192087,329.003969,0.035827,-0.002200,0.978611,0.250329,-0.074154,9.759422,-0.001795,0.004240,-0.002671,0.398558,-0.109934,-0.886437,98940.0000
1779272947682320683,2026-05-20 15:59:07.681,0.016690,2.198204,329.008621,0.033381,-0.004752,0.977779,0.361344,-0.283089,9.749801,0.003345,-0.006765,0.006134,0.398240,-0.108493,-0.887963,98937.0000
1779272947782231220,2026-05-20 15:59:07.780,0.016823,2.242389,329.001534,0.038591,-0.002943,0.980245,0.580066,-0.147409,9.909603,0.002538,0.001470,-0.002718,0.397058,-0.109654,-0.886705,98938.0000
1779272947882165127,2026-05-20 15:59:07.880,0.023050,2.255852,328.993219,0.035874,-0.000339,0.978200,0.669799,0.035834,9.706268,-0.005407,-0.003406,-0.001547,0.397085,-0.109023,-0.885521,98937.0000
1779272947982422201,2026-05-20 15:59:07.981,0.038000,2.225038,328.993834,0.037940,-0.003260,0.976386,0.411334,-0.119825,9.513223,-0.006891,-0.003311,-0.005349,0.398270,-0.109034,-0.886151,98940.0000
1779272948082341090,2026-05-20 15:59:08.081,0.053183,2.209098,328.982143,0.040000,-0.005394,0.978510,-0.174644,-0.177967,9.547254,-0.001658,0.005532,0.010247,0.398839,-0.110843,-0.887022,98938.0000
1779272948182288423,2026-05-20 15:59:08.180,0.058201,2.204929,328.963163,0.036672,-0.003740,0.977374,0.506362,0.216522,9.758778,0.005155,0.001864,0.011103,0.399499,-0.107502,-0.885019,98935.0000
1779272948282504553,2026-05-20 15:59:08.281,0.045032,2.196307,328.956970,0.035950,-0.002839,0.978158,0.476155,-0.003593,9.855879,0.010217,0.003718,0.001567,0.397677,-0.108145,-0.886157,98931.0000
1779272948382368812,2026-05-20 15:59:08.381,0.025147,2.189469,328.962694,0.038436,-0.002036,0.979094,0.291360,-0.025514,9.739122,0.000178,0.000025,-0.003923,0.399777,-0.109007,-0.885590,98934.0000
1779272948482168923,2026-05-20 15:59:08.480,0.007342,2.201147,328.970106,0.038100,-0.002227,0.978250,0.574120,0.026639,9.874633,-0.000737,-0.001493,-0.005103,0.397961,-0.109640,-0.886428,98933.0000
1779272948582155812,2026-05-20 15:59:08.580,0.003507,2.205965,328.984207,0.039799,-0.000816,0.977721,0.447640,-0.006180,9.740939,0.000354,0.001923,-0.004396,0.398565,-0.110511,-0.885823,98942.0000
1779272948682394367,2026-05-20 15:59:08.681,0.010844,2.211522,329.008640,0.037457,-0.002275,0.976191,0.471577,-0.182174,9.915045,-0.003400,0.000256,-0.010205,0.397376,-0.110212,-0.885500,98935.0000
1779272948782520238,2026-05-20 15:59:08.781,0.022565,2.190300,329.012224,0.035636,-0.004393,0.975682,0.390772,0.320165,9.779644,-0.000836,-0.002705,0.005142,0.395581,-0.108455,-0.886096,98930.0000
1779272948882183886,2026-05-20 15:59:08.880,0.039934,2.155407,329.011524,0.040046,-0.003261,0.980075,-0.158230,0.092252,9.609289,-0.004816,0.011051,-0.002534,0.397102,-0.108112,-0.884944,98942.0000
1779272948982707589,2026-05-20 15:59:08.981,0.050518,2.113735,329.008478,0.035308,-0.004269,0.979725,0.862490,-0.079986,9.952410,0.000324,0.014589,-0.001436,0.397692,-0.109299,-0.884930,98932.0000
1779272949082519848,2026-05-20 15:59:09.081,0.044652,2.077544,328.985197,0.030082,-0.006127,0.977099,0.652864,-0.461659,9.802865,-0.001478,-0.004383,0.012856,0.398564,-0.109041,-0.886458,98934.0000
1779272949182413534,2026-05-20 15:59:09.181,0.027480,2.044632,328.953379,0.032696,-0.003152,0.979209,-0.238775,-0.084951,9.675117,-0.000090,-0.001249,0.007325,0.397664,-0.109344,-0.886428,98938.0000
1779272949282359182,2026-05-20 15:59:09.281,0.013705,2.039438,328.936214,0.037538,-0.001692,0.979121,0.458561,-0.077243,9.770176,0.005003,0.002940,0.002320,0.397667,-0.110516,-0.885800,98935.0000
1779272949382515996,2026-05-20 15:59:09.381,0.008822,2.040905,328.930754,0.030316,-0.000851,0.975663,0.271948,-0.080113,9.703860,0.005317,0.001785,0.005337,0.398287,-0.109007,-0.885252,98934.0000
1779272949482429422,2026-05-20 15:59:09.481,0.014320,2.038009,328.937084,0.032529,-0.000976,0.976183,0.194034,0.320171,9.613152,-0.001189,-0.008192,0.001823,0.399480,-0.108711,-0.885590,98932.0000
1779272949582242941,2026-05-20 15:59:09.580,0.029237,2.050469,328.966358,0.035280,-0.001815,0.977393,0.105411,-0.000897,9.695010,-0.002511,-0.002900,-0.008434,0.399158,-0.109632,-0.886459,98938.0000
1779272949682756607,2026-05-20 15:59:09.681,0.045261,2.100157,329.014217,0.034338,-0.003715,0.978593,0.700942,0.117258,9.874746,0.001620,-0.000927,-0.010734,0.398893,-0.109580,-0.884654,98930.0000
1779272949782682811,2026-05-20 15:59:09.781,0.040944,2.134121,329.067900,0.031875,-0.005292,0.976797,0.484127,-0.112465,9.682540,-0.001706,-0.015337,-0.013834,0.398261,-0.108754,-0.886757,98934.0000
1779272949882198052,2026-05-20 15:59:09.880,0.025665,2.168061,329.124620,0.037073,-0.005319,0.980007,0.009451,-0.046727,9.616878,-0.001672,-0.009767,-0.007045,0.398259,-0.108168,-0.887071,98934.0000
1779272949982075459,2026-05-20 15:59:09.980,0.013821,2.226752,329.176310,0.040309,-0.003724,0.979774,0.430708,0.262600,9.745568,0.005045,-0.000639,-0.006394,0.398883,-0.108417,-0.885582,98936.0000
1779272950082840885,2026-05-20 15:59:10.081,0.011631,2.241314,329.230606,0.041150,-0.003163,0.977629,0.461256,-0.015354,9.686554,-0.000021,0.005912,-0.011053,0.398001,-0.106042,-0.885616,98940.0000
1779272950182544477,2026-05-20 15:59:10.181,0.016542,2.187394,329.281742,0.036610,-0.002699,0.976941,0.181762,-0.255561,9.827932,-0.006865,0.001436,-0.011066,0.398274,-0.107555,-0.886486,98930.0000
1779272950282373533,2026-05-20 15:59:10.281,0.031375,2.120698,329.332481,0.040925,-0.004606,0.979146,0.315547,-0.107671,9.800407,0.003449,0.010273,-0.004862,0.398314,-0.104841,-0.885353,98936.0000
1779272950382209366,2026-05-20 15:59:10.380,0.052517,2.086625,329.382105,0.034780,-0.003864,0.977695,0.009499,0.061517,9.633683,0.004094,0.015747,-0.003138,0.398316,-0.105427,-0.885039,98935.0000
1779272950482735144,2026-05-20 15:59:10.481,0.058262,2.056752,329.436897,0.028138,-0.003333,0.976750,0.894823,0.153208,9.999306,-0.007251,-0.007940,-0.013288,0.398297,-0.104867,-0.886251,98940.0000
1779272950582258866,2026-05-20 15:59:10.581,0.053349,2.054929,329.499493,0.035298,-0.006156,0.977956,0.451588,-0.335013,9.749720,-0.002114,-0.004257,-0.012146,0.398324,-0.105120,-0.884746,98932.0000
1779272950682128885,2026-05-20 15:59:10.680,0.043285,2.099194,329.567894,0.033785,-0.005158,0.978728,-0.339614,-0.368370,9.503098,0.008577,-0.000769,-0.009698,0.398610,-0.104550,-0.885667,98931.0000
1779272950782722940,2026-05-20 15:59:10.781,0.029050,2.148278,329.636330,0.031870,-0.003897,0.976619,0.494256,0.206471,9.750816,0.003286,-0.014371,-0.005473,0.398918,-0.103060,-0.885711,98935.0000
1779272950882646107,2026-05-20 15:59:10.881,0.013620,2.182596,329.693491,0.039804,-0.003843,0.979950,0.616880,-0.166273,9.910368,-0.001496,-0.006305,-0.010608,0.398884,-0.103998,-0.887187,98934.0000
1779272950982449903,2026-05-20 15:59:10.981,0.007975,2.171907,329.742456,0.044508,-0.002234,0.980387,0.539853,-0.356993,9.801507,0.001435,0.019339,-0.014501,0.398924,-0.103051,-0.885412,98941.0000
1779272951083631125,2026-05-20 15:59:11.082,0.019128,2.121584,329.807938,0.035489,-0.003340,0.976230,0.378245,-0.222097,9.721092,0.003510,0.007326,-0.011426,0.399814,-0.102469,-0.886048,98933.0000
1779272951182574903,2026-05-20 15:59:11.181,0.043469,2.050122,329.886221,0.034593,-0.002245,0.976474,0.222875,0.079979,9.789457,-0.000238,0.007560,-0.013091,0.398614,-0.101304,-0.886645,98936.0000
1779272951282431236,2026-05-20 15:59:11.281,0.063682,2.003515,329.975758,0.032244,-0.004514,0.977072,0.464520,0.252711,9.909563,0.002692,0.004330,-0.011494,0.399832,-0.100674,-0.885791,98933.0000
1779272951382292829,2026-05-20 15:59:11.381,0.080282,2.011159,330.064350,0.032144,-0.007720,0.977671,0.371412,-0.043314,9.890005,0.002861,-0.000337,-0.014087,0.399551,-0.100351,-0.884892,98938.0000
1779272951482766291,2026-05-20 15:59:11.481,0.081773,2.057338,330.132935,0.030141,-0.006061,0.977774,0.314183,-0.223939,9.726192,0.000721,-0.008110,-0.012190,0.400726,-0.098612,-0.886763,98937.0000
1779272951582673532,2026-05-20 15:59:11.581,0.064947,2.087552,330.181074,0.031951,-0.006584,0.977872,0.453556,-0.314198,9.955693,0.005770,-0.009863,-0.002623,0.400456,-0.100039,-0.884623,98940.0000
1779272951682459514,2026-05-20 15:59:11.681,0.049206,2.120719,330.211187,0.040736,-0.004866,0.980586,0.709509,-0.233704,9.759025,0.004461,-0.000045,0.003710,0.397747,-0.098315,-0.886095,98942.0000
1779272951782478495,2026-05-20 15:59:11.781,0.041708,2.133684,330.232981,0.035693,-0.002275,0.978729,0.226525,0.113540,9.859497,0.004020,-0.001384,-0.000668,0.399512,-0.099530,-0.887310,98938.0000
1779272951882610662,2026-05-20 15:59:11.881,0.043122,2.117313,330.254286,0.037114,-0.002583,0.976271,0.452422,0.081787,9.836700,-0.003348,-0.004080,-0.001614,0.401014,-0.098629,-0.887370,98932.0000
1779272951982486458,2026-05-20 15:59:11.981,0.041312,2.070086,330.272291,0.038665,-0.003260,0.978169,0.742638,-0.152490,9.912834,-0.000440,0.011904,-0.004176,0.398946,-0.098894,-0.885812,98934.0000
1779272952082399273,2026-05-20 15:59:12.081,0.040987,2.031974,330.275272,0.033418,-0.004524,0.977275,0.160902,-0.172214,9.744969,-0.003339,0.008811,0.000726,0.400453,-0.098867,-0.885251,98932.0000
1779272952182403161,2026-05-20 15:59:12.181,0.030162,2.004786,330.278330,0.028044,-0.002607,0.978319,0.150656,-0.112836,9.988276,0.000771,-0.004093,0.006134,0.400123,-0.100095,-0.886413,98934.0000
1779272952282723958,2026-05-20 15:59:12.281,0.016851,2.013860,330.277117,0.030062,-0.002170,0.977845,0.563345,0.357650,9.904238,0.007396,-0.013776,0.005404,0.401988,-0.099678,-0.882871,98938.0000
1779272952382549050,2026-05-20 15:59:12.381,0.005830,2.065570,330.255001,0.036721,-0.002325,0.979773,0.292665,-0.121550,9.782384,0.001765,0.001538,0.002549,0.400756,-0.099154,-0.884952,98934.0000
1779272952482352161,2026-05-20 15:59:12.481,0.001767,2.098597,330.231426,0.035465,-0.001379,0.978299,0.307862,-0.329405,9.774329,0.001214,0.008799,0.006638,0.398917,-0.099823,-0.886988,98933.0000
1779272952582834754,2026-05-20 15:59:12.581,0.010303,2.102518,330.217827,0.031049,-0.000806,0.975454,0.415604,-0.128298,9.834443,0.003298,-0.010418,0.007156,0.400129,-0.099202,-0.886434,98947.0000
1779272952682693587,2026-05-20 15:59:12.681,0.019024,2.093074,330.210308,0.038946,-0.001246,0.977590,0.440474,0.003057,9.675715,-0.000920,0.002034,0.004324,0.400127,-0.101267,-0.885785,98935.0000
1779272952782281291,2026-05-20 15:59:12.781,0.032213,2.094287,330.190977,0.039626,-0.002698,0.978140,0.668341,-0.330894,9.857382,0.002111,0.009376,0.003883,0.401339,-0.099763,-0.885552,98937.0000
1779272952882476698,2026-05-20 15:59:12.881,0.030445,2.104861,330.165543,0.030329,-0.003125,0.975300,0.486177,0.125319,9.713825,0.005488,-0.012484,0.009861,0.400750,-0.100047,-0.884930,98937.0000
1779272952982649420,2026-05-20 15:59:12.981,0.028384,2.103819,330.140663,0.035554,-0.000764,0.979912,0.426930,-0.084410,9.866304,-0.002897,-0.007678,0.008254,0.400742,-0.100353,-0.885223,98930.0000
1779272953082699642,2026-05-20 15:59:13.081,0.032917,2.110360,330.091703,0.037416,-0.002691,0.979855,0.345032,-0.421631,9.708798,-0.001181,0.006370,0.007918,0.400436,-0.099778,-0.885828,98934.0000
1779272953182419920,2026-05-20 15:59:13.180,0.037731,2.093526,330.018700,0.033118,-0.002665,0.979492,0.339058,0.549057,9.699224,0.003913,0.001809,0.020624,0.400437,-0.101248,-0.885193,98942.0000
1779272953283606327,2026-05-20 15:59:13.282,0.044205,2.060059,329.941463,0.035361,-0.000257,0.978975,0.346679,0.199790,9.765808,-0.001275,0.003506,0.015032,0.399832,-0.100674,-0.885791,98934.0000
1779272953382786698,2026-05-20 15:59:13.381,0.051580,2.023064,329.867989,0.037537,-0.001639,0.977137,0.481544,-0.177588,9.730413,0.001114,0.015826,0.007542,0.401036,-0.101244,-0.885209,98934.0000
1779272953482658216,2026-05-20 15:59:13.481,0.058082,2.001737,329.784487,0.028982,-0.003290,0.975791,0.418020,0.025721,9.738515,0.005384,0.000644,0.019670,0.399534,-0.102146,-0.885149,98938.0000
1779272953582450420,2026-05-20 15:59:13.581,0.063900,2.002004,329.695093,0.029621,-0.001568,0.976505,0.230696,-0.155904,9.686534,0.000998,-0.004873,0.018990,0.400141,-0.103306,-0.884236,98935.0000
1779272953682637438,2026-05-20 15:59:13.681,0.058958,2.022197,329.606552,0.033022,-0.001293,0.978693,0.733066,-0.014181,9.957294,0.003840,-0.003897,0.013200,0.399810,-0.103948,-0.885712,98944.0000
1779272953782589438,2026-05-20 15:59:13.781,0.052316,2.057876,329.522104,0.033420,-0.002749,0.977974,0.447983,-0.119743,9.817097,0.008002,-0.002618,0.020270,0.398948,-0.103601,-0.883899,98940.0000
1779272953882478253,2026-05-20 15:59:13.881,0.048014,2.062181,329.388691,0.034119,-0.002740,0.981275,0.433891,-0.322261,9.875119,0.009576,0.018174,0.034354,0.399195,-0.104862,-0.886275,98940.0000
1779272953982293716,2026-05-20 15:59:13.981,0.030247,1.764796,329.146299,0.030410,0.001754,0.983006,0.485012,0.007559,9.890022,0.001257,0.069342,0.044075,0.401043,-0.107710,-0.882354,98938.0000
1779272954082853383,2026-05-20 15:59:14.081,0.007406,1.257451,328.821812,0.013609,0.001748,0.981598,-0.058877,-0.058561,9.712191,0.004605,0.111109,0.051431,0.402578,-0.111173,-0.879011,98938.0000
1779272954182591901,2026-05-20 15:59:14.181,-0.033152,0.549638,328.366077,-0.008865,0.000284,0.984255,-0.570412,0.325844,10.001815,0.010905,0.131169,0.085401,0.406244,-0.113974,-0.873939,98936.0000
1779272954282400438,2026-05-20 15:59:14.281,-0.078933,-0.065945,327.838230,-0.037038,0.005098,0.981360,-0.174018,-0.077118,9.839158,0.009164,0.094427,0.090775,0.409598,-0.118860,-0.868808,98938.0000
1779272954383559160,2026-05-20 15:59:14.382,-0.125552,-0.590498,327.285515,-0.054821,0.006538,0.982158,-0.965281,0.040634,9.867233,0.008216,0.079865,0.093087,0.412679,-0.123116,-0.862487,98931.0000
1779272954482713567,2026-05-20 15:59:14.481,-0.156313,-1.116099,326.639206,-0.074411,0.006972,0.980201,-0.889596,-0.079848,9.066761,0.006719,0.108166,0.131402,0.414154,-0.130502,-0.860848,98936.0000
1779272954582042345,2026-05-20 15:59:14.580,-0.123983,-1.683487,325.741318,-0.116371,0.015389,0.969347,-0.866137,-2.167896,9.659255,-0.018853,0.082915,0.181201,0.415688,-0.134848,-0.857183,98940.0000
1779272954682260197,2026-05-20 15:59:14.680,0.012281,-1.871978,324.679089,-0.136016,0.015601,0.970148,-2.079072,0.408750,9.541341,-0.028935,0.010580,0.161832,0.414190,-0.142812,-0.854255,98938.0000
1779272954782891604,2026-05-20 15:59:14.781,0.131383,-1.790663,323.642895,-0.123545,0.002511,0.971684,-1.262865,0.581978,9.980498,-0.003068,-0.033343,0.150318,0.411730,-0.148823,-0.855548,98941.0000
1779272954882477289,2026-05-20 15:59:14.881,0.175354,-1.415400,322.576313,-0.117326,-0.012790,0.969342,-0.987557,-0.310536,8.957171,0.012023,-0.092272,0.210437,0.406214,-0.159371,-0.858454,98937.0000
1779272954982315938,2026-05-20 15:59:14.981,0.101512,-0.863545,321.400444,-0.084544,-0.012012,0.976925,-0.239781,-1.387424,9.961928,0.016451,-0.101789,0.244801,0.399213,-0.168440,-0.861357,98936.0000
1779272955082308382,2026-05-20 15:59:15.081,-0.014336,-0.314935,320.070667,-0.063554,0.002084,0.971983,-0.762318,-0.161500,9.880086,0.007091,-0.106575,0.245028,0.392748,-0.178488,-0.867249,98936.0000
1779272955182617623,2026-05-20 15:59:15.181,-0.015145,0.156157,318.678764,-0.044481,0.014654,0.972877,-0.887602,0.102054,9.459723,-0.018496,-0.072267,0.241916,0.386945,-0.189019,-0.869548,98936.0000
1779272955282499271,2026-05-20 15:59:15.281,0.137267,0.449306,317.266872,-0.024605,0.010807,0.975452,0.541997,0.211807,10.086846,-0.047144,-0.037671,0.235163,0.379050,-0.199266,-0.871801,98935.0000
1779272955382332771,2026-05-20 15:59:15.381,0.324462,0.510760,315.835716,-0.020657,-0.004355,0.979027,-1.703639,0.524069,9.514907,-0.019549,0.006342,0.253938,0.372402,-0.206774,-0.872352,98942.0000
1779272955483578141,2026-05-20 15:59:15.482,0.453657,0.416958,314.345039,-0.015107,-0.013566,0.984191,-0.267052,0.126742,9.855312,-0.008779,0.032623,0.269966,0.368106,-0.218162,-0.873768,98934.0000
1779272955582749030,2026-05-20 15:59:15.581,0.431408,0.189535,312.752338,-0.015406,-0.023447,0.986458,-0.320049,0.111114,9.795006,0.019762,0.047902,0.285576,0.363563,-0.230057,-0.872168,98940.0000
1779272955682657789,2026-05-20 15:59:15.681,0.273953,-0.058963,311.007298,-0.021662,-0.022072,0.986723,0.149941,0.290206,10.225527,0.028107,0.036821,0.324530,0.359052,-0.242196,-0.868763,98934.0000
1779272955782297567,2026-05-20 15:59:15.780,0.084049,-0.236302,309.111862,-0.029998,-0.011675,0.980727,-0.187892,-0.732088,9.719102,0.028328,0.031145,0.339646,0.351797,-0.257084,-0.867021,98932.0000
1779272955882871696,2026-05-20 15:59:15.881,-0.018925,-0.280103,307.116219,-0.034399,0.001804,0.976538,-0.713533,0.282526,9.714300,0.005168,0.003544,0.347414,0.343641,-0.271688,-0.865564,98936.0000
1779272955982634252,2026-05-20 15:59:15.981,-0.004755,-0.225179,305.095741,-0.029094,0.003501,0.975307,-0.260937,-0.100759,9.739868,-0.011731,-0.014610,0.352616,0.333929,-0.284336,-0.868012,98942.0000
1779272956082549270,2026-05-20 15:59:16.081,0.085510,-0.085821,303.086487,-0.024921,0.001243,0.972858,0.325561,-0.323223,9.825164,-0.017147,-0.016086,0.348611,0.323382,-0.296890,-0.867143,98939.0000
1779272956182068066,2026-05-20 15:59:16.180,0.186369,0.080547,301.074139,-0.017162,-0.008883,0.975445,0.185410,0.156981,9.981697,-0.016353,-0.023166,0.348957,0.311886,-0.309530,-0.868947,98935.0000
1779272956282681492,2026-05-20 15:59:16.281,0.226751,0.191213,299.069008,-0.010247,-0.017300,0.976985,0.417402,-0.106033,9.858481,0.003160,-0.017470,0.344518,0.300119,-0.321542,-0.869559,98934.0000
1779272956382519029,2026-05-20 15:59:16.381,0.210288,0.241586,297.058830,-0.009058,-0.016987,0.977692,-0.134217,0.154268,9.898226,0.011328,-0.010934,0.347896,0.289568,-0.333807,-0.868996,98934.0000
1779272956482342529,2026-05-20 15:59:16.481,0.162713,0.258532,295.031868,-0.009346,-0.012948,0.980136,0.131303,-0.025270,9.992322,0.005601,-0.010453,0.354623,0.277813,-0.343735,-0.869659,98934.0000
1779272956583628048,2026-05-20 15:59:16.582,0.119761,0.288213,292.997681,-0.009884,-0.009313,0.978688,-0.323030,-0.289928,9.656664,0.011626,-0.015495,0.354671,0.264271,-0.356019,-0.869019,98937.0000
1779272956682784103,2026-05-20 15:59:16.681,0.128767,0.358983,290.971596,-0.008180,-0.008563,0.980868,0.182727,0.103282,9.871583,0.005745,-0.010743,0.359071,0.253430,-0.366798,-0.868485,98930.0000
1779272956782426825,2026-05-20 15:59:16.781,0.169268,0.413838,288.967087,-0.008603,-0.005717,0.976575,-0.007026,0.094684,9.711298,-0.008486,-0.028291,0.339960,0.238402,-0.376720,-0.868164,98938.0000
1779272956882263992,2026-05-20 15:59:16.880,0.215846,0.569987,287.054657,0.001178,-0.011338,0.977531,0.278921,-0.432688,9.765258,-0.001676,-0.037380,0.321373,0.226897,-0.388197,-0.870896,98936.0000
1779272956982765029,2026-05-20 15:59:16.981,0.230160,0.720774,285.206772,0.009620,-0.014555,0.979874,0.270296,-0.358738,9.712796,0.003978,-0.027442,0.316196,0.212779,-0.394560,-0.871284,98934.0000
1779272957082519936,2026-05-20 15:59:17.081,0.182690,0.779042,283.357513,0.016050,-0.016358,0.981261,0.257641,-0.268493,9.817721,0.018059,0.000953,0.319000,0.200768,-0.403832,-0.869856,98938.0000
1779272957182391121,2026-05-20 15:59:17.181,0.100036,0.720947,281.501335,0.014262,-0.013680,0.981807,-0.116906,0.098534,9.804123,0.026712,0.019111,0.324239,0.187279,-0.410435,-0.868454,98947.0000
1779272957282311918,2026-05-20 15:59:17.281,0.043955,0.623870,279.679390,0.006961,-0.005539,0.978908,0.085368,-0.157709,9.752273,0.011321,0.009884,0.306111,0.175224,-0.419778,-0.869423,98928.0000
1779272957382835492,2026-05-20 15:59:17.381,0.049018,0.537920,277.903572,0.002832,-0.003681,0.976186,-0.134846,-0.379731,9.635966,-0.004458,0.008494,0.308129,0.162659,-0.426628,-0.866540,98932.0000
1779272957482664806,2026-05-20 15:59:17.481,0.088501,0.546787,276.159294,-0.000379,-0.005091,0.973857,-0.032938,0.003424,9.739351,-0.007555,-0.017574,0.301288,0.149156,-0.430309,-0.867008,98933.0000
1779272957582547880,2026-05-20 15:59:17.581,0.116594,0.671219,274.450401,0.003306,-0.011041,0.975308,0.013301,-1.040941,9.646422,-0.000652,-0.031655,0.291116,0.137723,-0.437845,-0.867436,98939.0000
1779272957682740732,2026-05-20 15:59:17.681,0.093310,0.839471,272.778130,0.007657,-0.010589,0.978168,-0.037804,0.233627,9.931268,0.016642,-0.027876,0.292203,0.121809,-0.444219,-0.867778,98943.0000
1779272957782710177,2026-05-20 15:59:17.781,0.034667,0.990969,271.130112,0.013754,-0.009138,0.980690,-0.149411,-0.213535,9.808743,0.012570,-0.026706,0.290169,0.108305,-0.448784,-0.867925,98936.0000
1779272957882525677,2026-05-20 15:59:17.881,-0.027632,1.075622,269.474541,0.021878,-0.005064,0.981159,0.462880,-0.103559,9.643606,0.016485,-0.005581,0.290545,0.097248,-0.452955,-0.865444,98932.0000
1779272957982429565,2026-05-20 15:59:17.981,-0.047679,1.073510,267.814468,0.022201,-0.000757,0.980771,-0.193418,-0.091501,9.508860,0.003756,0.015502,0.288282,0.081931,-0.456971,-0.866758,98931.0000
1779272958082986269,2026-05-20 15:59:18.081,-0.006260,1.011967,266.172035,0.019441,-0.001089,0.979748,0.403292,-0.036622,9.842463,-0.006651,0.021955,0.274292,0.072050,-0.460874,-0.865513,98936.0000
1779272958182579843,2026-05-20 15:59:18.181,0.070467,0.933673,264.585625,0.016141,-0.003799,0.978664,0.315667,-0.127178,9.867078,-0.005649,0.021376,0.270196,0.059445,-0.463665,-0.866325,98942.0000
1779272958284216843,2026-05-20 15:59:18.282,0.126418,0.892133,263.034821,0.010344,-0.008909,0.978147,0.240165,-0.001214,9.921686,0.003462,0.013722,0.269920,0.048047,-0.464961,-0.867204,98934.0000
1779272958382368954,2026-05-20 15:59:18.381,0.124027,0.902239,261.491463,0.008379,-0.009191,0.977374,0.008468,-0.147644,9.739687,0.013811,-0.002721,0.258284,0.035507,-0.467942,-0.864414,98934.0000
1779272958482862750,2026-05-20 15:59:18.481,0.072235,0.952980,259.950661,0.011735,-0.010555,0.977042,0.372209,-0.320349,9.914906,0.021793,-0.006887,0.269042,0.022277,-0.473136,-0.865752,98937.0000
1779272958582411028,2026-05-20 15:59:18.581,0.006419,1.032573,258.411255,0.015343,-0.004725,0.977570,0.536125,0.240027,10.014725,0.013683,-0.013927,0.266488,0.009435,-0.473179,-0.864225,98936.0000
1779272958682249009,2026-05-20 15:59:18.680,-0.026891,1.103540,256.854881,0.018204,-0.003513,0.977455,0.176163,-0.090467,9.805367,0.006165,-0.006409,0.270687,-0.004341,-0.475347,-0.863823,98938.0000
1779272958782878695,2026-05-20 15:59:18.781,-0.008803,1.123395,255.291588,0.023150,-0.002937,0.979526,0.735116,-0.234567,10.128500,-0.004632,-0.004927,0.272828,-0.016904,-0.474243,-0.863830,98934.0000
1779272958882792194,2026-05-20 15:59:18.881,0.037239,1.079184,253.728928,0.022236,-0.002152,0.979520,0.262738,0.199094,9.944982,-0.004364,0.009642,0.268099,-0.028320,-0.478217,-0.864643,98939.0000
1779272958982600528,2026-05-20 15:59:18.981,0.082168,1.015125,252.163399,0.017201,-0.006664,0.978327,0.093034,-0.321972,9.861388,-0.004379,0.008853,0.271124,-0.039999,-0.477423,-0.865265,98936.0000
1779272959083688343,2026-05-20 15:59:19.082,0.106145,0.976766,250.584312,0.014423,-0.006654,0.978638,0.314380,0.178691,9.952736,0.004512,0.002544,0.279627,-0.053145,-0.476593,-0.864350,98939.0000
1779272959182645694,2026-05-20 15:59:19.181,0.106336,0.983315,248.989410,0.009589,-0.005457,0.976465,-0.247465,-0.105230,9.620164,0.006574,-0.004617,0.283417,-0.066026,-0.477583,-0.864599,98934.0000
1779272959282580268,2026-05-20 15:59:19.281,0.097596,1.042778,247.400536,0.013019,-0.008273,0.978867,-0.036000,-0.322392,9.872849,0.013145,-0.015979,0.277729,-0.079788,-0.476783,-0.864568,98941.0000
1779272959382404213,2026-05-20 15:59:19.381,0.070304,1.092175,245.807350,0.017307,-0.008771,0.980482,0.179605,-0.495027,9.842445,0.014785,-0.004511,0.277488,-0.089893,-0.474384,-0.861670,98933.0000
1779272959482217231,2026-05-20 15:59:19.480,0.050633,1.099088,244.194252,0.020102,-0.005630,0.980948,-0.022147,0.149298,9.802678,0.005971,-0.001529,0.281344,-0.105772,-0.474518,-0.862462,98942.0000
1779272959582840490,2026-05-20 15:59:19.581,0.039422,1.057555,242.565376,0.019046,-0.003614,0.978672,-0.185449,-0.123120,9.556890,0.006582,0.003086,0.278505,-0.118000,-0.472176,-0.861008,98938.0000
1779272959682616490,2026-05-20 15:59:19.681,0.040041,0.983149,240.934746,0.015669,-0.001918,0.976890,-0.125372,-0.007724,9.686975,0.003279,0.010406,0.282600,-0.131164,-0.469903,-0.861627,98935.0000
1779272959782566712,2026-05-20 15:59:19.781,0.056257,0.920222,239.307930,0.011562,-0.000965,0.975713,0.687563,-0.226784,9.896843,0.003704,0.018018,0.282147,-0.143095,-0.468741,-0.859852,98933.0000
1779272959882758583,2026-05-20 15:59:19.881,0.079421,0.921858,237.671478,0.005932,-0.002890,0.975891,0.313807,0.009304,9.736606,0.003154,-0.011606,0.283019,-0.155983,-0.464735,-0.862319,98932.0000
1779272959982772175,2026-05-20 15:59:19.981,0.093266,0.982525,236.031464,0.006048,-0.006609,0.978454,-0.321235,0.490615,9.639309,0.003427,-0.019113,0.283767,-0.168809,-0.462397,-0.860849,98935.0000
1779272960082411860,2026-05-20 15:59:20.081,0.094285,1.073357,234.389732,0.011939,-0.009174,0.981162,0.659540,-0.219728,9.902094,0.010910,-0.009116,0.284480,-0.183452,-0.457455,-0.861495,98934.0000
1779272960182364416,2026-05-20 15:59:20.181,0.090806,1.155159,232.746086,0.015571,-0.006661,0.980313,0.157701,-0.171099,9.693845,0.008101,-0.012976,0.289645,-0.196278,-0.454234,-0.860346,98934.0000
1779272960282950712,2026-05-20 15:59:20.281,0.082348,1.180218,231.106659,0.020992,-0.005576,0.980672,0.136779,-0.318589,9.826889,0.017001,0.008106,0.289871,-0.210318,-0.451046,-0.860066,98941.0000
1779272960382728212,2026-05-20 15:59:20.381,0.086404,1.131158,229.438690,0.020083,-0.002400,0.977896,0.508476,0.262998,10.099914,0.005459,0.019031,0.289632,-0.221621,-0.444533,-0.858735,98938.0000
1779272960482618379,2026-05-20 15:59:20.481,0.106854,1.045130,227.751526,0.016387,-0.002710,0.976391,0.524192,-0.088416,9.803770,0.004179,0.012809,0.293048,-0.233861,-0.439856,-0.858836,98936.0000
1779272960582441360,2026-05-20 15:59:20.581,0.132203,0.972957,226.052917,0.010599,-0.003992,0.976973,0.151235,-0.159655,9.761418,0.002442,0.014987,0.298082,-0.244877,-0.434243,-0.857790,98933.0000
1779272960682669712,2026-05-20 15:59:20.681,0.142140,0.940178,224.347626,0.005995,-0.006745,0.979125,-0.201071,0.403743,9.778861,-0.000040,-0.007490,0.296697,-0.258921,-0.427530,-0.859094,98934.0000
1779272960782599619,2026-05-20 15:59:20.781,0.131698,0.967115,222.647110,0.007171,-0.008379,0.980543,0.694523,0.063155,10.080357,0.001882,-0.023311,0.298604,-0.271146,-0.422239,-0.858610,98936.0000
1779272960882449008,2026-05-20 15:59:20.881,0.106218,1.040945,220.961411,0.010525,-0.008674,0.979954,0.556364,-0.122373,10.072012,0.019541,-0.012774,0.293363,-0.283068,-0.417236,-0.857827,98936.0000
1779272960982989545,2026-05-20 15:59:20.981,0.086754,1.103531,219.278015,0.016208,-0.005069,0.977578,0.261960,-0.473307,9.744370,0.015497,-0.005871,0.290876,-0.294674,-0.408668,-0.857437,98935.0000
1779272961082721971,2026-05-20 15:59:21.081,0.089968,1.122386,217.585114,0.018435,-0.000878,0.976271,0.263474,0.022978,9.830605,-0.002095,0.001311,0.296788,-0.307467,-0.400388,-0.856411,98936.0000
1779272961182419286,2026-05-20 15:59:21.181,0.121822,1.109242,215.873611,0.016706,-0.002152,0.975428,-0.388899,0.048862,9.544611,0.004081,0.001107,0.304263,-0.318226,-0.393663,-0.858098,98941.0000
1779272961282261841,2026-05-20 15:59:21.280,0.154128,1.050095,214.152161,0.017358,-0.004810,0.979296,-0.279893,-0.009584,9.534113,0.000460,0.010630,0.302905,-0.330716,-0.384785,-0.857093,98937.0000
1779272961382767674,2026-05-20 15:59:21.381,0.161842,0.988477,212.409637,0.011415,-0.009213,0.980047,-0.588612,-0.795596,9.480635,0.009756,0.007785,0.308417,-0.339337,-0.377390,-0.856751,98941.0000
1779272961482665748,2026-05-20 15:59:21.481,0.141346,0.977452,210.645813,0.008643,-0.005982,0.982345,-0.353833,0.365675,9.778986,0.002189,-0.001420,0.300871,-0.351262,-0.368563,-0.857560,98937.0000
1779272961582456748,2026-05-20 15:59:21.581,0.126702,1.033076,208.875122,0.008729,-0.007089,0.980171,-0.108329,0.206490,9.690972,0.004189,-0.010676,0.310225,-0.361957,-0.357907,-0.857243,98939.0000
1779272961683788471,2026-05-20 15:59:21.682,0.134918,1.111626,207.108658,0.015540,-0.004428,0.977522,0.418399,-0.481079,9.791466,-0.003791,-0.013427,0.308272,-0.373846,-0.348728,-0.856261,98938.0000
1779272961782667211,2026-05-20 15:59:21.781,0.165019,1.149149,205.331528,0.017816,-0.003139,0.974934,0.006811,0.254327,9.667914,0.006488,-0.000299,0.319535,-0.384535,-0.338946,-0.855325,98940.0000
1779272961882543008,2026-05-20 15:59:21.881,0.205544,1.139340,203.551361,0.019994,-0.003561,0.975859,0.530900,-0.096088,10.036931,-0.004971,0.006492,0.305919,-0.394942,-0.328306,-0.855615,98939.0000
1779272961982346082,2026-05-20 15:59:21.981,0.222603,1.087317,201.819809,0.016685,-0.007739,0.978754,0.247807,-0.204961,9.905532,0.004604,0.008034,0.304889,-0.403867,-0.317387,-0.856849,98942.0000
1779272962082919118,2026-05-20 15:59:22.081,0.210301,1.023748,200.215912,0.014728,-0.004681,0.981235,0.131847,0.092128,9.720010,0.008238,0.005418,0.267317,-0.411562,-0.307289,-0.855996,98934.0000
1779272962182584952,2026-05-20 15:59:22.181,0.178575,0.964510,198.738815,0.014299,-0.006333,0.982570,-0.096536,-0.159811,9.660171,0.007929,0.008551,0.248500,-0.419556,-0.297194,-0.855136,98930.0000
1779272962282464748,2026-05-20 15:59:22.281,0.138258,0.899968,197.364731,0.013681,-0.003193,0.981211,-0.041309,0.023237,9.730653,0.007124,0.016422,0.232002,-0.425478,-0.287707,-0.855212,98936.0000
1779272962382263878,2026-05-20 15:59:22.380,0.121412,0.829508,196.102997,0.012549,0.000937,0.976972,0.163759,0.016986,9.738888,-0.002303,0.004264,0.205738,-0.431121,-0.279725,-0.855860,98940.0000
1779272962482775340,2026-05-20 15:59:22.481,0.145546,0.927218,195.012283,0.012587,0.000504,0.973781,0.168183,-0.019493,9.781258,-0.002135,-0.027764,0.174347,-0.437661,-0.271749,-0.856485,98944.0000
1779272962582678266,2026-05-20 15:59:22.581,0.178523,1.143537,194.080200,0.023759,-0.001999,0.974824,0.210837,-0.017205,9.698781,-0.000597,-0.039935,0.149356,-0.442362,-0.267224,-0.853475,98939.0000
1779272962682464377,2026-05-20 15:59:22.681,0.188044,1.552047,193.369797,0.035064,-0.002337,0.971963,0.997451,-0.011610,9.649198,0.002842,-0.105511,0.098981,-0.447681,-0.258907,-0.852939,98941.0000
1779272962782441433,2026-05-20 15:59:22.781,0.169668,2.513335,193.038467,0.064899,0.001591,0.970168,1.110636,0.045395,9.725485,0.017440,-0.190134,0.023178,-0.455306,-0.258414,-0.844660,98937.0000
1779272962882712211,2026-05-20 15:59:22.881,0.112461,3.625996,193.054794,0.123170,0.001745,0.977100,1.542710,-0.161186,9.928035,0.002847,-0.171460,-0.031869,-0.461139,-0.259389,-0.836090,98940.0000
1779272962982422933,2026-05-20 15:59:22.981,0.037800,4.448196,193.189590,0.164636,-0.001730,0.976268,2.113632,-0.227326,9.883990,0.013715,-0.100317,-0.014948,-0.464325,-0.262187,-0.829344,98940.0000
1779272963082567340,2026-05-20 15:59:23.081,-0.027821,4.955736,193.125244,0.191848,0.000308,0.974696,4.042627,-0.384324,10.670310,0.005078,-0.047250,0.042231,-0.468135,-0.259434,-0.826014,98931.0000
1779272963182762451,2026-05-20 15:59:23.181,-0.065349,4.933688,192.812561,0.202983,0.003517,0.974652,1.715881,-0.332074,9.712758,0.026220,0.068990,0.052152,-0.470814,-0.258251,-0.825674,98938.0000
1779272963282712710,2026-05-20 15:59:23.281,-0.063572,4.343303,192.373703,0.189844,0.013279,0.971242,2.341427,0.727902,10.185850,0.000621,0.139633,0.069419,-0.467875,-0.256844,-0.829082,98941.0000
1779272963382525562,2026-05-20 15:59:23.381,-0.027782,3.429184,191.903732,0.149655,0.009299,0.966161,1.276324,-0.224491,9.683640,-0.004084,0.153880,0.082582,-0.467060,-0.251671,-0.835525,98936.0000
1779272963482392507,2026-05-20 15:59:23.481,0.025497,2.649233,191.407135,0.104364,0.011126,0.966546,0.553165,0.471004,9.599472,-0.000626,0.111378,0.092220,-0.462058,-0.247355,-0.841754,98934.0000
1779272963582894451,2026-05-20 15:59:23.581,0.064751,2.340019,190.923050,0.068230,0.008257,0.965741,0.752470,0.093411,9.985020,0.003432,0.008840,0.083026,-0.463606,-0.245092,-0.845368,98936.0000
1779272963682739803,2026-05-20 15:59:23.681,0.054070,2.602113,190.492554,0.064121,0.006788,0.968767,0.568401,0.225971,9.383270,0.008023,-0.092855,0.075403,-0.465916,-0.240850,-0.842412,98932.0000
1779272963782368895,2026-05-20 15:59:23.781,0.002145,3.253164,190.164017,0.092155,0.003813,0.974551,1.562546,-0.005227,9.534341,0.022928,-0.127354,0.052334,-0.470012,-0.239551,-0.837840,98942.0000
1779272963882895025,2026-05-20 15:59:23.881,-0.040209,3.943997,189.915466,0.124331,0.003367,0.980210,1.050835,-0.362684,9.546464,0.012775,-0.083406,0.033413,-0.476450,-0.236417,-0.831153,98937.0000
1779272963982751895,2026-05-20 15:59:23.981,-0.031086,4.196281,189.696609,0.141113,0.007238,0.979001,0.999939,0.431466,9.724005,-0.004971,0.006895,0.040306,-0.480000,-0.234608,-0.829607,98928.0000
1779272964082639840,2026-05-20 15:59:24.081,0.040349,3.840873,189.474548,0.134942,0.005613,0.976495,1.290063,0.304227,9.740147,-0.014730,0.107644,0.045188,-0.478538,-0.232002,-0.832406,98936.0000
1779272964183829747,2026-05-20 15:59:24.182,0.148275,3.045140,189.294312,0.103070,0.000943,0.974864,0.345687,0.022899,9.457329,-0.022366,0.155801,0.026333,-0.475088,-0.231321,-0.840308,98940.0000
1779272964282944543,2026-05-20 15:59:24.281,0.231383,2.190953,189.214966,0.052931,-0.007768,0.976376,0.274711,-0.016660,9.701166,-0.009792,0.134011,0.008771,-0.470101,-0.229387,-0.846479,98938.0000
1779272964382836358,2026-05-20 15:59:24.381,0.251815,1.634838,189.237457,0.012517,-0.012401,0.977981,-0.355602,-0.262883,9.808782,0.006429,0.055708,-0.001242,-0.465405,-0.229502,-0.851394,98939.0000
1779272964482612006,2026-05-20 15:59:24.481,0.210357,1.572414,189.286896,-0.000911,-0.010879,0.979143,-0.104905,-0.238300,9.771627,0.010306,-0.024112,-0.003531,-0.465677,-0.228872,-0.850203,98941.0000
1779272964582471691,2026-05-20 15:59:24.581,0.152961,1.924129,189.282364,0.011080,-0.007660,0.977946,0.221870,-0.397222,9.628281,0.004020,-0.082565,0.012730,-0.468046,-0.229437,-0.848630,98938.0000
1779272964682692710,2026-05-20 15:59:24.681,0.094372,2.377153,189.197464,0.037722,-0.003908,0.978569,0.522588,0.192433,9.828426,0.011692,-0.072446,0.021825,-0.469733,-0.229863,-0.842578,98932.0000
1779272964782652524,2026-05-20 15:59:24.781,0.058378,2.637536,189.063782,0.061045,0.003211,0.977888,0.530815,0.014483,9.761985,0.002974,-0.025781,0.020197,-0.473023,-0.229884,-0.842494,98941.0000
1779272964882527728,2026-05-20 15:59:24.881,0.039672,2.607754,188.933060,0.065801,0.000780,0.976289,0.656296,0.048218,9.782817,0.008172,0.029180,0.022205,-0.472728,-0.227825,-0.843451,98939.0000
1779272964982953654,2026-05-20 15:59:24.981,0.014865,2.324312,188.846329,0.054289,0.002823,0.978662,0.367858,0.289746,9.854550,0.002477,0.058654,0.009651,-0.473032,-0.226953,-0.844064,98938.0000
1779272965082616969,2026-05-20 15:59:25.081,-0.006178,1.996592,188.783371,0.035729,0.001167,0.977613,0.437570,-0.456074,9.658011,0.001029,0.061822,0.012465,-0.470387,-0.226422,-0.846843,98936.0000
1779272965182482320,2026-05-20 15:59:25.181,-0.005435,1.776997,188.677032,0.018555,-0.000539,0.979416,0.051547,0.218521,9.810036,-0.000103,0.024034,0.025838,-0.470414,-0.225583,-0.848662,98938.0000
1779272965282422987,2026-05-20 15:59:25.281,0.032472,1.719342,188.551208,0.014292,0.002089,0.979654,0.030395,0.009376,9.977704,-0.007735,-0.002573,0.023368,-0.469218,-0.223808,-0.849335,98934.0000
1779272965382884283,2026-05-20 15:59:25.381,0.073476,1.826348,188.421936,0.015753,-0.002945,0.978177,0.262168,0.088014,9.807143,-0.003793,-0.028469,0.025914,-0.471595,-0.222326,-0.849010,98940.0000
1779272965482786394,2026-05-20 15:59:25.481,0.090561,2.022187,188.304611,0.026671,-0.004865,0.977030,0.403287,-0.168935,9.674129,0.000869,-0.037894,0.025036,-0.471855,-0.222265,-0.846905,98935.0000
1779272965582755098,2026-05-20 15:59:25.581,0.062974,2.190357,188.197342,0.036697,-0.006110,0.977199,0.632668,-0.622890,9.868218,0.004586,-0.022323,0.026536,-0.473631,-0.221067,-0.846289,98936.0000
1779272965682460394,2026-05-20 15:59:25.681,0.001786,2.239531,188.115417,0.043631,-0.001743,0.977981,0.216170,-0.221351,9.663210,0.012235,-0.000684,0.016396,-0.474548,-0.222281,-0.846836,98938.0000
1779272965782791801,2026-05-20 15:59:25.781,-0.052832,2.223116,188.046249,0.042447,-0.000916,0.977574,0.610181,-0.315192,9.644715,0.014943,0.017516,0.013702,-0.474220,-0.221351,-0.845667,98939.0000
1779272965882639394,2026-05-20 15:59:25.881,-0.084167,2.174880,187.983795,0.032453,0.004757,0.977274,0.580877,-0.189815,9.656821,-0.001382,0.004503,0.005289,-0.474811,-0.221048,-0.845360,98936.0000
1779272965982464912,2026-05-20 15:59:25.981,-0.078426,2.139380,187.953125,0.032032,0.002871,0.978221,0.302733,0.095612,9.792904,-0.005569,-0.002978,0.003050,-0.472713,-0.221324,-0.845106,98943.0000
1779272966083018783,2026-05-20 15:59:26.081,-0.050209,2.148941,187.976608,0.033639,-0.000071,0.979471,0.348264,0.581006,9.667655,-0.003878,-0.005657,-0.006869,-0.474208,-0.219565,-0.845711,98940.0000
1779272966182623227,2026-05-20 15:59:26.181,-0.021580,2.239533,188.052887,0.030693,-0.003379,0.976424,0.436127,-0.022502,9.689323,-0.004034,-0.016085,-0.018905,-0.474837,-0.221679,-0.846544,98938.0000
1779272966282587912,2026-05-20 15:59:26.281,-0.015243,2.320168,188.162720,0.033345,-0.005629,0.976366,0.032259,-0.107000,9.742987,-0.002352,-0.022390,-0.016359,-0.473897,-0.221899,-0.844163,98939.0000
1779272966383883560,2026-05-20 15:59:26.382,-0.020876,2.371006,188.290359,0.042170,-0.004698,0.979180,0.147993,-0.207810,9.764600,0.003833,-0.004596,-0.019499,-0.474521,-0.222534,-0.845332,98932.0000
1779272966482983653,2026-05-20 15:59:26.481,-0.037820,2.417495,188.436554,0.041679,-0.008046,0.979456,0.492217,-0.200984,10.022078,0.012716,0.007261,-0.014151,-0.475391,-0.222495,-0.843811,98942.0000
1779272966582783968,2026-05-20 15:59:26.581,-0.062366,2.426088,188.575302,0.038466,-0.005325,0.977270,0.293144,-0.359550,9.847321,-0.002691,0.001585,-0.017740,-0.474212,-0.224282,-0.844098,98939.0000
1779272966682677708,2026-05-20 15:59:26.681,-0.074460,2.383255,188.706100,0.039370,-0.003453,0.977523,0.233947,-0.242992,9.660931,-0.002412,-0.003067,-0.021942,-0.473038,-0.225194,-0.845006,98934.0000
1779272966782236893,2026-05-20 15:59:26.780,-0.058473,2.348683,188.851715,0.040041,-0.002214,0.979430,0.585517,0.085154,9.604868,-0.007156,0.005551,-0.030343,-0.472767,-0.227005,-0.845869,98934.0000
1779272966882796208,2026-05-20 15:59:26.881,-0.038106,2.342429,189.029510,0.032185,-0.005795,0.977047,0.476722,-0.256780,9.694637,-0.006845,-0.001620,-0.040675,-0.471840,-0.228424,-0.843758,98936.0000
1779272966982659301,2026-05-20 15:59:26.981,-0.035235,2.338712,189.210098,0.035211,-0.006451,0.976564,0.104345,-0.003272,9.540804,-0.005160,-0.007962,-0.034009,-0.470961,-0.228743,-0.844673,98936.0000
1779272967082408393,2026-05-20 15:59:27.081,-0.035380,2.353470,189.398880,0.040809,-0.008439,0.979232,0.320469,-0.094402,9.861830,-0.000318,0.008117,-0.040866,-0.470978,-0.228770,-0.845572,98934.0000
1779272967183022930,2026-05-20 15:59:27.181,-0.047156,2.375879,189.609039,0.036035,-0.007102,0.978276,0.320114,0.162344,9.774705,0.006815,-0.002432,-0.047084,-0.470092,-0.230550,-0.845552,98931.0000
1779272967282605097,2026-05-20 15:59:27.281,-0.066672,2.397838,189.849945,0.034387,-0.006612,0.975990,0.361771,0.432933,9.724178,0.002034,-0.014143,-0.047199,-0.468315,-0.233218,-0.845533,98933.0000
1779272967382545338,2026-05-20 15:59:27.381,-0.083184,2.400796,190.089783,0.040135,-0.006023,0.978229,0.267697,0.456448,9.584945,-0.002332,-0.013358,-0.045688,-0.468317,-0.234399,-0.845205,98939.0000
1779272967482286430,2026-05-20 15:59:27.481,-0.086890,2.389323,190.319824,0.044534,-0.006688,0.979714,0.252479,0.268692,9.811745,-0.000876,0.018481,-0.044646,-0.468342,-0.235616,-0.846074,98937.0000
1779272967582894597,2026-05-20 15:59:27.581,-0.094127,2.373352,190.577316,0.033123,-0.006929,0.977720,0.565211,0.355158,10.068398,-0.001572,0.003719,-0.046968,-0.467412,-0.236738,-0.843972,98938.0000
1779272967682694078,2026-05-20 15:59:27.681,-0.120652,2.367567,190.862305,0.032453,-0.007621,0.976823,0.215783,0.244011,9.921772,0.001693,-0.015638,-0.046533,-0.464766,-0.240329,-0.845153,98936.0000
1779272967782668134,2026-05-20 15:59:27.781,-0.145483,2.384504,191.122894,0.043012,-0.007733,0.980219,0.259911,0.137305,9.821390,0.000837,-0.003264,-0.043853,-0.463865,-0.243263,-0.843906,98934.0000
1779272967882540726,2026-05-20 15:59:27.881,-0.147623,2.408563,191.351379,0.038764,-0.005177,0.978846,0.554600,0.181360,9.807856,-0.001628,0.004111,-0.038784,-0.463897,-0.242136,-0.846031,98936.0000
1779272967982688782,2026-05-20 15:59:27.981,-0.135505,2.396654,191.568420,0.032420,-0.004159,0.977300,0.671718,0.336570,9.849751,-0.006702,-0.002925,-0.034536,-0.461230,-0.246872,-0.845686,98940.0000
1779272968082591393,2026-05-20 15:59:28.081,-0.113783,2.378870,191.786819,0.037468,-0.006516,0.977414,0.211986,0.219976,9.529854,-0.009054,-0.008269,-0.041522,-0.461539,-0.247478,-0.845963,98938.0000
1779272968182484115,2026-05-20 15:59:28.181,-0.092264,2.402293,191.988312,0.042024,-0.008721,0.978518,0.273594,-0.103459,9.594416,-0.002832,0.013507,-0.036443,-0.460641,-0.247472,-0.845986,98938.0000
1779272968283089689,2026-05-20 15:59:28.281,-0.082120,2.420433,192.168533,0.035021,-0.009155,0.975842,0.481840,-0.352304,9.939168,-0.000598,-0.002295,-0.031407,-0.458551,-0.248055,-0.846025,98936.0000
1779272968382887837,2026-05-20 15:59:28.381,-0.090221,2.412720,192.338882,0.035632,-0.007811,0.977458,0.127561,-0.142187,9.688440,0.000927,-0.009510,-0.030307,-0.459443,-0.249819,-0.845060,98936.0000
1779272968482397726,2026-05-20 15:59:28.481,-0.109325,2.441300,192.499420,0.039074,-0.009732,0.978497,0.196465,-0.204001,9.652282,0.007410,0.000103,-0.024744,-0.457624,-0.249474,-0.843915,98937.0000
1779272968582301466,2026-05-20 15:59:28.580,-0.134304,2.471747,192.638931,0.037836,-0.004793,0.977583,0.501191,0.075578,9.596414,-0.003768,-0.004342,-0.030495,-0.459146,-0.250114,-0.845061,98935.0000
1779272968682777726,2026-05-20 15:59:28.681,-0.161134,2.450634,192.762741,0.039422,-0.003630,0.977943,0.211806,-0.285180,9.610394,0.000988,0.001421,-0.026325,-0.457974,-0.252208,-0.845640,98935.0000
1779272968782805152,2026-05-20 15:59:28.781,-0.175752,2.427353,192.910522,0.039692,-0.001718,0.980668,0.360162,-0.011377,9.738411,-0.004994,0.003328,-0.030581,-0.458891,-0.256073,-0.845224,98936.0000
1779272968882631374,2026-05-20 15:59:28.881,-0.173201,2.446118,193.093582,0.036831,-0.003678,0.978077,0.540703,0.042815,9.825404,-0.007919,-0.008384,-0.034425,-0.454680,-0.255128,-0.844454,98932.0000
1779272968982589948,2026-05-20 15:59:28.981,-0.164531,2.492121,193.276794,0.039893,-0.006230,0.977107,0.348330,-0.169388,9.644936,0.000573,-0.000598,-0.028012,-0.456522,-0.256392,-0.846477,98937.0000
1779272969082876244,2026-05-20 15:59:29.081,-0.157883,2.496267,193.443909,0.039595,-0.005452,0.975474,0.310788,-0.107128,9.741449,-0.005039,-0.005692,-0.030589,-0.455605,-0.257532,-0.844973,98930.0000
1779272969182474114,2026-05-20 15:59:29.181,-0.150589,2.483073,193.601685,0.043777,-0.005920,0.978518,0.000252,-0.364332,9.573452,0.001153,0.012917,-0.034272,-0.454099,-0.258686,-0.844084,98932.0000
1779272969282391577,2026-05-20 15:59:29.281,-0.133586,2.480689,193.763214,0.036465,-0.006198,0.976483,0.542552,0.025954,9.906858,-0.000536,0.008888,-0.020518,-0.453509,-0.259873,-0.844071,98935.0000
1779272969382931447,2026-05-20 15:59:29.381,-0.127689,2.456234,193.907883,0.036677,-0.005795,0.976758,0.460256,-0.028208,9.737810,0.004269,-0.003667,-0.018846,-0.453229,-0.260196,-0.844970,98937.0000
1779272969482774059,2026-05-20 15:59:29.481,-0.131372,2.418088,194.037567,0.038826,-0.007389,0.979559,0.068468,-0.245147,9.758165,0.004966,0.001815,-0.023874,-0.451765,-0.262594,-0.845849,98940.0000
1779272969582616466,2026-05-20 15:59:29.581,-0.141557,2.418005,194.171112,0.035650,-0.005958,0.980259,0.099641,0.133541,9.706175,0.007312,0.001271,-0.021644,-0.450872,-0.262300,-0.846179,98936.0000
1779272969682492318,2026-05-20 15:59:29.681,-0.157227,2.456776,194.302322,0.033490,-0.006969,0.978763,0.220807,-0.153777,9.759293,0.008101,-0.006029,-0.017242,-0.451462,-0.261997,-0.845871,98931.0000
1779272969783026318,2026-05-20 15:59:29.781,-0.179027,2.482920,194.426407,0.038672,-0.004182,0.976450,0.440538,0.027682,9.650689,0.002027,-0.005287,-0.017980,-0.450867,-0.264943,-0.844916,98943.0000
1779272969882687281,2026-05-20 15:59:29.881,-0.193079,2.519405,194.550674,0.041333,-0.001936,0.977298,0.431099,0.385491,9.944109,0.002858,-0.005702,-0.024531,-0.451786,-0.264100,-0.846412,98936.0000
1779272969982425706,2026-05-20 15:59:29.981,-0.190213,2.548635,194.682373,0.040871,-0.003507,0.976674,0.581021,-0.009211,9.921370,0.000366,-0.004917,-0.025234,-0.450566,-0.265527,-0.844610,98938.0000
1779272970082880169,2026-05-20 15:59:30.081,-0.176591,2.558979,194.836243,0.041568,-0.002299,0.977596,0.720014,0.216472,9.751480,-0.004838,-0.000155,-0.026419,-0.449381,-0.267305,-0.844597,98940.0000
1779272970182815132,2026-05-20 15:59:30.181,-0.159464,2.520496,194.988693,0.042352,-0.005730,0.978888,0.504636,-0.129068,9.803499,-0.004564,0.014164,-0.030151,-0.448805,-0.268221,-0.845490,98934.0000
1779272970282911002,2026-05-20 15:59:30.281,-0.148359,2.484494,195.125305,0.038408,-0.006864,0.979629,0.203283,-0.400691,9.887812,0.004881,0.021951,-0.025678,-0.447614,-0.268223,-0.845819,98936.0000
1779272970382645632,2026-05-20 15:59:30.381,-0.149225,2.454701,195.258179,0.032605,-0.007753,0.976835,0.296261,-0.177919,9.876235,0.004140,-0.003077,-0.019839,-0.446438,-0.269722,-0.846413,98936.0000
1779272970482787595,2026-05-20 15:59:30.481,-0.159760,2.443183,195.381805,0.038757,-0.005857,0.978813,0.201842,0.210937,9.767477,0.004873,-0.003326,-0.014631,-0.447618,-0.270586,-0.845163,98938.0000
1779272970582678280,2026-05-20 15:59:30.581,-0.178799,2.467703,195.494049,0.037738,-0.003998,0.977441,0.277351,0.172287,9.690513,0.001806,-0.000395,-0.021055,-0.446732,-0.271482,-0.845464,98942.0000
1779272970682481243,2026-05-20 15:59:30.681,-0.187907,2.499307,195.607117,0.036522,-0.003610,0.977195,0.467070,0.060063,9.807269,0.000884,-0.002772,-0.021654,-0.444966,-0.273284,-0.846365,98928.0000
1779272970782431502,2026-05-20 15:59:30.781,-0.192123,2.528086,195.717331,0.038815,-0.004438,0.978019,0.095071,-0.419543,9.658948,0.000826,-0.005739,-0.016069,-0.446740,-0.270905,-0.846077,98934.0000
1779272970882452910,2026-05-20 15:59:30.881,-0.187349,2.549123,195.809845,0.042688,-0.004115,0.978561,0.208892,0.149351,9.815281,0.008041,0.004666,-0.008552,-0.444900,-0.272589,-0.843085,98936.0000
1779272970982617928,2026-05-20 15:59:30.981,-0.168021,2.545964,195.896591,0.044912,-0.002542,0.978153,0.652454,0.239812,9.903500,-0.000873,0.009597,-0.006668,-0.445261,-0.273574,-0.846051,98939.0000
1779272971082712298,2026-05-20 15:59:31.081,-0.151859,2.499505,195.984589,0.038873,-0.003282,0.976253,0.628833,-0.148080,9.762047,-0.008069,0.006552,-0.019088,-0.444955,-0.274149,-0.845445,98943.0000
1779272971182898798,2026-05-20 15:59:31.181,-0.146948,2.434817,196.087860,0.035306,-0.006664,0.976718,0.114443,-0.083615,9.585279,0.006148,-0.003195,-0.018655,-0.444629,-0.273516,-0.844269,98936.0000
1779272971282821428,2026-05-20 15:59:31.281,-0.143561,2.440253,196.197495,0.041635,-0.006587,0.980636,0.235561,-0.080150,9.546506,-0.002358,0.008838,-0.019759,-0.444330,-0.275282,-0.843634,98930.0000
1779272971382704298,2026-05-20 15:59:31.381,-0.153772,2.464425,196.291153,0.035577,-0.006820,0.977430,0.739317,-0.496912,9.997781,0.005044,0.003095,-0.014992,-0.443444,-0.275294,-0.844256,98938.0000
1779272971482537613,2026-05-20 15:59:31.481,-0.181604,2.450928,196.334045,0.033364,-0.005299,0.976611,0.126058,0.158907,9.720139,0.005392,-0.009125,-0.002986,-0.442893,-0.275660,-0.846661,98939.0000
1779272971583085076,2026-05-20 15:59:31.581,-0.201935,2.442422,196.375824,0.039824,-0.002202,0.979875,0.311708,0.083313,9.922201,-0.001464,-0.002457,-0.005868,-0.442886,-0.277121,-0.845726,98936.0000
1779272971682602835,2026-05-20 15:59:31.681,-0.209258,2.419637,196.429611,0.041693,-0.002975,0.979300,0.631872,-0.266668,9.958285,0.006093,0.015766,-0.009229,-0.441395,-0.277121,-0.846064,98933.0000
1779272971782612557,2026-05-20 15:59:31.781,-0.199650,2.407999,196.466507,0.032212,-0.002583,0.976003,0.028035,-0.032400,9.775655,0.001954,0.001795,-0.005757,-0.443473,-0.277107,-0.845112,98944.0000
1779272971883781576,2026-05-20 15:59:31.882,-0.190298,2.389117,196.496490,0.035197,-0.001202,0.978039,0.142073,0.006960,9.622325,-0.006972,-0.007065,-0.006149,-0.442014,-0.275979,-0.847575,98943.0000
1779272971982995539,2026-05-20 15:59:31.981,-0.176616,2.372036,196.527542,0.040216,-0.004024,0.979142,0.547212,-0.115168,9.810743,-0.004004,0.010230,-0.005224,-0.441409,-0.278320,-0.846335,98934.0000
1779272972082865927,2026-05-20 15:59:32.081,-0.170538,2.380986,196.549011,0.033684,-0.005564,0.976463,0.593108,-0.025619,9.921133,0.000380,-0.001990,0.002597,-0.442876,-0.276517,-0.845441,98941.0000
1779272972182508298,2026-05-20 15:59:32.181,-0.175497,2.392364,196.561859,0.033080,-0.003186,0.977184,0.374556,0.138917,9.578176,0.001411,-0.006322,-0.001125,-0.442888,-0.277419,-0.845719,98934.0000
1779272972283030946,2026-05-20 15:59:32.281,-0.184780,2.405200,196.570419,0.036499,-0.001755,0.978846,0.359877,0.190296,9.649314,0.005172,-0.005020,-0.004529,-0.442874,-0.276219,-0.845448,98943.0000
1779272972382856631,2026-05-20 15:59:32.381,-0.196758,2.418483,196.584518,0.038458,-0.004481,0.978639,0.220493,0.001444,9.764982,0.002890,0.000961,-0.002929,-0.440830,-0.279525,-0.846920,98936.0000
1779272972482706557,2026-05-20 15:59:32.481,-0.195733,2.445155,196.616074,0.039516,-0.001610,0.978820,0.490862,-0.000901,9.753153,-0.000212,0.002454,-0.006869,-0.442600,-0.279203,-0.845684,98939.0000
1779272972582572668,2026-05-20 15:59:32.581,-0.194581,2.422548,196.644043,0.036321,-0.002188,0.977129,0.824693,-0.118193,9.822761,-0.000036,0.008382,-0.006975,-0.441406,-0.279493,-0.845707,98931.0000
1779272972683115538,2026-05-20 15:59:32.681,-0.190897,2.367534,196.654007,0.036331,-0.003525,0.977105,0.323638,-0.149551,9.854592,0.001271,0.000980,-0.001006,-0.440536,-0.278648,-0.847549,98935.0000
1779272972782699631,2026-05-20 15:59:32.781,-0.179307,2.350329,196.675919,0.038153,-0.002398,0.979341,0.142134,-0.223383,9.704956,0.007161,0.011431,-0.007212,-0.439317,-0.278605,-0.846381,98938.0000
1779272972882621927,2026-05-20 15:59:32.881,-0.159484,2.379284,196.724564,0.032933,-0.001408,0.976863,0.807848,-0.113986,9.898601,-0.008256,-0.003608,-0.013533,-0.441121,-0.279220,-0.846621,98943.0000
1779272972983779149,2026-05-20 15:59:32.982,-0.144541,2.401533,196.767944,0.033150,-0.006592,0.976677,-0.162060,-0.163549,9.591321,0.000502,-0.012736,-0.001563,-0.440799,-0.279183,-0.845430,98933.0000
1779272973082887371,2026-05-20 15:59:33.081,-0.130736,2.448680,196.796432,0.042310,-0.004967,0.980145,0.506597,-0.085985,9.756084,0.000508,-0.001833,0.000123,-0.441990,-0.278297,-0.845421,98940.0000
1779272973182504556,2026-05-20 15:59:33.181,-0.133075,2.465973,196.834717,0.040424,-0.005551,0.978419,0.276842,-0.390710,9.804267,0.004247,0.014516,-0.012795,-0.441097,-0.278003,-0.845751,98936.0000
1779272973284193556,2026-05-20 15:59:33.282,-0.151651,2.456633,196.856186,0.033109,-0.004622,0.975517,0.603995,0.058317,9.980710,0.000489,-0.009112,-0.001600,-0.441428,-0.278645,-0.847226,98943.0000
1779272973383088778,2026-05-20 15:59:33.381,-0.165563,2.407517,196.876907,0.040110,-0.002358,0.978781,0.388108,-0.051686,9.821538,-0.004107,0.009085,-0.006062,-0.441998,-0.276836,-0.846355,98944.0000
1779272973483049093,2026-05-20 15:59:33.481,-0.178852,2.388058,196.898941,0.036551,-0.003934,0.979230,0.148129,-0.299005,9.610342,0.008732,0.008333,0.001632,-0.439622,-0.280384,-0.846031,98938.0000
1779272973582781056,2026-05-20 15:59:33.581,-0.184112,2.382243,196.919586,0.032542,-0.001886,0.977495,0.782265,-0.049997,10.015231,0.002138,-0.004034,0.001879,-0.442913,-0.279520,-0.846268,98934.0000
1779272973682584612,2026-05-20 15:59:33.681,-0.180748,2.412264,196.939743,0.032088,-0.000676,0.974873,0.199506,-0.114241,9.658587,-0.008990,-0.014589,-0.000998,-0.439644,-0.279536,-0.847550,98935.0000
1779272973783010760,2026-05-20 15:59:33.781,-0.177864,2.457426,196.963974,0.038324,-0.003108,0.978791,0.562325,-0.071773,9.871499,0.002015,-0.002287,-0.006028,-0.440500,-0.279181,-0.845438,98941.0000
1779272973882717963,2026-05-20 15:59:33.881,-0.174555,2.502459,196.990646,0.038233,-0.003047,0.978286,0.662385,0.168310,9.662869,-0.007238,-0.010817,-0.007504,-0.440504,-0.279776,-0.845423,98934.0000
1779272973982549760,2026-05-20 15:59:33.981,-0.168726,2.509436,196.991119,0.040875,-0.004771,0.978837,0.273450,-0.098904,9.567078,-0.000750,-0.002243,0.004557,-0.440507,-0.280957,-0.845095,98936.0000
1779272974083820297,2026-05-20 15:59:34.082,-0.151653,2.485459,196.970947,0.042646,-0.002381,0.980009,0.503228,-0.169302,9.799536,0.003509,0.017104,0.009771,-0.439915,-0.279492,-0.846045,98943.0000
1779272974182822741,2026-05-20 15:59:34.181,-0.149497,2.409424,196.949844,0.034017,-0.002649,0.978172,0.490055,-0.183982,9.850045,-0.001621,0.002431,0.006035,-0.440500,-0.279181,-0.845438,98941.0000
1779272974282697185,2026-05-20 15:59:34.281,-0.154321,2.329089,196.925674,0.036875,-0.004331,0.978618,0.398551,-0.044675,9.852304,0.000883,0.006961,0.010888,-0.439597,-0.279166,-0.845161,98936.0000
1779272974382475907,2026-05-20 15:59:34.381,-0.157827,2.300730,196.892502,0.036914,-0.000655,0.977698,0.248823,-0.103925,9.796239,0.003138,0.011232,0.009932,-0.440240,-0.278358,-0.847863,98936.0000
1779272974483028278,2026-05-20 15:59:34.481,-0.150068,2.301466,196.858688,0.029622,0.000334,0.975989,0.596948,0.065869,9.817804,-0.003393,-0.003445,-0.002482,-0.441116,-0.280095,-0.846000,98935.0000
1779272974582855741,2026-05-20 15:59:34.581,-0.147807,2.290930,196.840118,0.030104,-0.004058,0.976521,0.181763,-0.092328,9.784934,-0.002914,-0.015809,0.002700,-0.441699,-0.277718,-0.846042,98940.0000
1779272974682725463,2026-05-20 15:59:34.681,-0.138132,2.337156,196.815506,0.039821,-0.001626,0.980433,0.261268,0.140444,9.721048,-0.000063,-0.005357,0.001084,-0.441706,-0.278908,-0.846013,98938.0000
1779272974782371296,2026-05-20 15:59:34.781,-0.122611,2.377261,196.781906,0.035638,-0.001833,0.977187,0.647947,-0.057161,9.981911,-0.006910,-0.002080,0.003499,-0.440513,-0.278612,-0.846351,98943.0000
1779272974882853055,2026-05-20 15:59:34.881,-0.117257,2.391963,196.744934,0.032226,-0.005026,0.976525,0.234143,-0.093313,9.764945,-0.003706,-0.016236,0.010425,-0.441451,-0.279565,-0.848104,98933.0000
1779272974982738629,2026-05-20 15:59:34.981,-0.133827,2.362054,196.728928,0.041746,-0.002932,0.980445,-0.168279,0.240933,9.589861,0.006702,0.004273,0.004265,-0.443213,-0.276284,-0.847538,98939.0000
1779272975082650111,2026-05-20 15:59:35.081,-0.150528,2.338302,196.727661,0.039661,-0.000627,0.978567,0.557536,0.087176,9.599857,0.001622,0.016019,-0.000925,-0.442291,-0.276829,-0.846048,98935.0000
1779272975182328277,2026-05-20 15:59:35.180,-0.156474,2.293967,196.737900,0.030915,-0.002165,0.976184,0.252348,-0.053792,9.940084,0.005619,0.007558,0.003718,-0.441083,-0.275920,-0.845801,98940.0000
1779272975282830055,2026-05-20 15:59:35.281,-0.156241,2.255309,196.759567,0.032618,-0.002568,0.978366,0.289342,0.158712,9.900048,0.000354,-0.005365,-0.003512,-0.441409,-0.278320,-0.846335,98939.0000
1779272975382895185,2026-05-20 15:59:35.381,-0.153625,2.285877,196.767059,0.034118,-0.003394,0.978574,0.431357,-0.348860,9.733053,0.001317,-0.003945,-0.000967,-0.440824,-0.278632,-0.846942,98935.0000
1779272975482364833,2026-05-20 15:59:35.481,-0.151580,2.324159,196.756683,0.032052,-0.002140,0.976873,0.037849,-0.084630,9.675716,0.005815,-0.004722,0.011017,-0.442007,-0.277440,-0.846641,98940.0000
1779272975582890203,2026-05-20 15:59:35.581,-0.136847,2.328244,196.760361,0.036932,-0.000870,0.977575,0.342988,0.072767,9.737775,-0.006182,-0.003209,-0.003155,-0.440815,-0.278912,-0.846336,98938.0000
1779272975682768073,2026-05-20 15:59:35.681,-0.122083,2.329288,196.779816,0.037721,-0.004968,0.979629,0.669544,-0.332839,9.980127,0.000955,0.002318,-0.005808,-0.441706,-0.278908,-0.846013,98944.0000
1779272975782711647,2026-05-20 15:59:35.781,-0.118352,2.335109,196.773651,0.031237,-0.004833,0.976668,0.100346,0.217250,9.697383,0.004858,-0.006588,0.006695,-0.441113,-0.277146,-0.846970,98939.0000
1779272975882608166,2026-05-20 15:59:35.881,-0.123276,2.345163,196.744781,0.038562,-0.001539,0.977218,0.030350,-0.123177,9.492929,0.003063,0.000786,0.004264,-0.441108,-0.277137,-0.846671,98937.0000
1779272975982507110,2026-05-20 15:59:35.981,-0.129171,2.343815,196.724670,0.034844,-0.002970,0.978126,0.482059,-0.102975,9.712720,0.002054,-0.001977,0.002827,-0.442314,-0.277749,-0.846925,98940.0000
1779272976082891814,2026-05-20 15:59:36.081,-0.142716,2.357460,196.718277,0.034229,-0.003754,0.979099,0.553673,0.176914,9.780123,0.005442,-0.001448,0.001508,-0.442267,-0.277379,-0.844536,98939.0000
1779272976182380055,2026-05-20 15:59:36.181,-0.148635,2.378039,196.701111,0.035528,-0.001617,0.977930,0.240730,-0.207559,9.713958,0.000685,-0.008957,0.001351,-0.442600,-0.277435,-0.846326,98938.0000
1779272976283010203,2026-05-20 15:59:36.281,-0.147580,2.370286,196.689255,0.036450,-0.000200,0.977086,0.231520,0.138365,9.850630,-0.003334,-0.007466,0.003647,-0.441403,-0.278311,-0.846035,98936.0000
1779272976382854277,2026-05-20 15:59:36.381,-0.137185,2.379946,196.703781,0.037909,-0.001152,0.978684,0.203716,0.342162,9.755633,0.001994,0.000818,-0.001767,-0.441384,-0.277103,-0.845465,98937.0000
1779272976482742962,2026-05-20 15:59:36.481,-0.124811,2.388853,196.722229,0.039197,-0.005274,0.978503,0.147276,-0.018568,9.732893,-0.000321,0.005032,0.000783,-0.442927,-0.278365,-0.847495,98943.0000
1779272976582580128,2026-05-20 15:59:36.581,-0.111399,2.392313,196.716644,0.037323,-0.002016,0.978007,0.470833,0.186870,9.766685,-0.000991,-0.001146,0.001545,-0.441990,-0.277413,-0.845742,98938.0000
1779272976682515962,2026-05-20 15:59:36.681,-0.099925,2.368257,196.700241,0.037819,-0.003012,0.979077,0.765905,-0.294531,9.923828,-0.004241,-0.001954,0.000390,-0.441395,-0.276237,-0.846385,98929.0000
1779272976782847573,2026-05-20 15:59:36.781,-0.102509,2.355874,196.685211,0.036246,-0.008152,0.977295,0.013326,-0.044957,9.676527,0.011247,0.008588,0.013627,-0.441424,-0.277166,-0.847562,98942.0000
1779272976882735073,2026-05-20 15:59:36.881,-0.120620,2.343149,196.666245,0.035267,-0.002952,0.977838,0.191267,0.140369,9.683871,0.002909,0.000533,0.004577,-0.444662,-0.275924,-0.845110,98938.0000
1779272976983033610,2026-05-20 15:59:36.981,-0.127795,2.331822,196.635757,0.035435,0.000139,0.977102,0.802298,-0.140343,9.798439,-0.003240,0.006811,0.002171,-0.443194,-0.276843,-0.846325,98937.0000
1779272977082912128,2026-05-20 15:59:37.081,-0.122404,2.324193,196.609558,0.032823,-0.001880,0.977346,0.102340,-0.105030,9.758953,0.002616,0.005222,0.008087,-0.444066,-0.276218,-0.845118,98936.0000
1779272977182866980,2026-05-20 15:59:37.181,-0.116494,2.323427,196.602341,0.034675,-0.001907,0.979708,0.220021,0.114335,9.701982,-0.000824,0.003987,-0.001007,-0.443213,-0.277168,-0.847217,98938.0000
1779272977282785443,2026-05-20 15:59:37.281,-0.118342,2.335467,196.602905,0.035653,-0.001709,0.978873,0.713623,0.071114,9.844101,-0.004336,-0.005587,-0.008528,-0.442298,-0.275368,-0.846983,98935.0000
1779272977382915202,2026-05-20 15:59:37.381,-0.127015,2.338970,196.601059,0.033149,-0.003229,0.976993,0.119718,0.112519,9.881913,0.001208,-0.010227,0.001202,-0.441361,-0.275299,-0.844909,98934.0000
1779272977482806869,2026-05-20 15:59:37.481,-0.135794,2.338994,196.597336,0.039293,-0.002382,0.979126,0.103542,0.160073,9.600626,0.003873,0.002844,0.001934,-0.444090,-0.275668,-0.846630,98935.0000
1779272977582648239,2026-05-20 15:59:37.581,-0.139913,2.345880,196.596924,0.037040,-0.002389,0.979018,0.513999,0.017789,9.817536,0.000716,0.007395,0.000143,-0.442262,-0.275016,-0.845193,98931.0000
1779272977684019443,2026-05-20 15:59:37.682,-0.141546,2.327552,196.593582,0.030574,-0.004333,0.976150,0.266079,-0.037910,9.907270,-0.000509,-0.016117,0.001281,-0.442570,-0.276209,-0.845157,98942.0000
1779272977782832294,2026-05-20 15:59:37.781,-0.132384,2.321739,196.569412,0.039158,-0.000680,0.978468,0.351830,-0.155513,9.771096,0.003129,-0.001577,0.009914,-0.443522,-0.278658,-0.847173,98932.0000
1779272977882681035,2026-05-20 15:59:37.881,-0.116311,2.307411,196.538773,0.037923,-0.001984,0.978127,0.186440,-0.105655,9.694467,0.002991,0.017189,0.004258,-0.442605,-0.274793,-0.847589,98937.0000
1779272977982552090,2026-05-20 15:59:37.981,-0.112419,2.280627,196.508957,0.031272,-0.005111,0.976863,0.604393,-0.127378,9.858092,0.008423,0.001765,0.006675,-0.442287,-0.275350,-0.846384,98943.0000
1779272978083809257,2026-05-20 15:59:38.082,-0.120231,2.277626,196.486847,0.033650,-0.001540,0.977511,0.485810,0.066204,9.776926,-0.002232,-0.005580,0.001965,-0.441687,-0.275049,-0.846406,98933.0000
1779272978182799424,2026-05-20 15:59:38.181,-0.127164,2.280810,196.479675,0.032919,-0.000155,0.977772,0.011759,-0.230835,9.684742,0.003849,0.004270,0.003025,-0.443493,-0.275962,-0.846638,98940.0000
1779272978282648498,2026-05-20 15:59:38.281,-0.130248,2.323134,196.480423,0.032938,-0.002669,0.978567,0.378352,0.098926,9.752730,-0.000004,-0.002404,0.001946,-0.442259,-0.276189,-0.844565,98938.0000
1779272978383870312,2026-05-20 15:59:38.382,-0.133977,2.365102,196.474991,0.034707,-0.001834,0.978757,0.635040,0.079352,9.835767,-0.004758,-0.011232,-0.000548,-0.442878,-0.275047,-0.846076,98938.0000
1779272978483044479,2026-05-20 15:59:38.481,-0.139224,2.372489,196.459854,0.037919,-0.002901,0.979882,0.096145,-0.384114,9.734926,0.003075,-0.003553,0.001849,-0.443779,-0.274764,-0.846360,98936.0000
1779272978582914775,2026-05-20 15:59:38.581,-0.128643,2.361266,196.417969,0.035262,-0.000806,0.978525,0.615224,0.402228,10.032002,0.000979,0.007717,0.008711,-0.444094,-0.276263,-0.846616,98938.0000
1779272978682775294,2026-05-20 15:59:38.681,-0.109248,2.119538,196.426331,0.038618,0.000430,0.982674,0.213264,0.346903,9.786931,-0.009276,0.073858,-0.013848,-0.442588,-0.274766,-0.846690,98933.0000
1779272978782401960,2026-05-20 15:59:38.781,-0.090551,1.511601,196.587601,0.021020,-0.003967,0.982358,0.161710,-0.110910,9.976640,-0.003544,0.131080,-0.035879,-0.437895,-0.275475,-0.851591,98941.0000
1779272978882942386,2026-05-20 15:59:38.881,-0.052987,0.794221,196.896194,-0.015420,-0.005175,0.980762,0.047492,0.537522,10.131118,-0.002655,0.119033,-0.063481,-0.433502,-0.277071,-0.856163,98943.0000
1779272978982738812,2026-05-20 15:59:38.981,-0.003719,0.112745,197.367340,-0.040725,-0.006768,0.982036,-0.756251,0.081719,9.581124,-0.004411,0.098247,-0.094023,-0.426139,-0.281921,-0.860733,98936.0000
1779272979082557108,2026-05-20 15:59:39.081,0.057415,-0.328880,197.936447,-0.057009,-0.011359,0.979799,-0.507971,-0.042911,9.720375,-0.006875,0.043331,-0.113316,-0.421433,-0.283199,-0.864721,98938.0000
1779272979182445127,2026-05-20 15:59:39.181,0.114805,-0.471471,198.565598,-0.059156,-0.015155,0.979015,-1.123762,0.193086,9.715025,-0.002274,0.015577,-0.125511,-0.417577,-0.287351,-0.865019,98932.0000
1779272979284793367,2026-05-20 15:59:39.283,0.148689,-0.600202,199.274216,-0.058246,-0.020309,0.977261,-1.207379,0.484677,9.379940,0.018150,0.045289,-0.137239,-0.413451,-0.292727,-0.866494,98943.0000
1779272979382922923,2026-05-20 15:59:39.381,0.149586,-1.058992,200.236145,-0.080031,-0.018789,0.977123,-1.059144,1.727997,9.928938,0.001285,0.093555,-0.185385,-0.406363,-0.298129,-0.869544,98932.0000
1779272979482460571,2026-05-20 15:59:39.481,0.049284,-1.601015,201.477417,-0.108304,-0.026910,0.971526,-1.362921,-0.436746,9.458273,0.027608,0.057634,-0.219178,-0.395098,-0.307059,-0.872016,98939.0000
1779272979582961349,2026-05-20 15:59:39.581,-0.069663,-1.702105,202.752945,-0.124314,-0.012402,0.972964,-1.986539,-0.088297,9.529016,0.016839,-0.027820,-0.220822,-0.388883,-0.316552,-0.872246,98945.0000
