Timestamp,Time,Roll,Pitch,Yaw,Magnetic_Field_X,Magnetic_Field_Y,Magnetic_Field_Z,Angular_Rate_X,Angular_Rate_Y,Angular_Rate_Z,Acceleration_X,Acceleration_Y,Acceleration_Z
1764075359198631123,2025-11-25 18:25:59.195,-1.375000,1.764000,282.032000,0.017000,0.314600,0.139200,0.272000,0.239000,-10.106000,-0.002298,0.003314,-0.008567
1764075359224929642,2025-11-25 18:25:59.221,-1.377000,1.770000,282.020000,0.018000,0.312800,0.161600,0.303000,0.243000,-10.135000,-0.001652,0.003881,-0.007608
1764075359250619197,2025-11-25 18:25:59.248,-1.380000,1.776000,282.006000,0.018800,0.313600,0.134000,0.299000,0.256000,-10.128000,-0.000957,0.004791,-0.007815
1764075359276243068,2025-11-25 18:25:59.273,-1.381000,1.783000,281.992000,0.017900,0.313700,0.144600,0.305000,0.240000,-10.082000,-0.000973,0.004042,-0.009125
1764075359297355475,2025-11-25 18:25:59.295,-1.384000,1.786000,281.979000,0.018000,0.313700,0.164800,0.326000,0.242000,-10.139000,-0.000732,0.002468,-0.007510
1764075359324284512,2025-11-25 18:25:59.321,-1.385000,1.790000,281.966000,0.018800,0.308000,0.163800,0.306000,0.261000,-10.180000,0.000377,0.001617,-0.009017
1764075359349520660,2025-11-25 18:25:59.347,-1.386000,1.792000,281.953000,0.018000,0.316500,0.139300,0.372000,0.261000,-10.136000,-0.000714,0.001321,-0.008807
1764075359374583179,2025-11-25 18:25:59.371,-1.387000,1.795000,281.940000,0.018000,0.314700,0.161600,0.301000,0.237000,-10.161000,0.000420,0.001239,-0.007886
1764075359397853419,2025-11-25 18:25:59.395,-1.387000,1.795000,281.926000,0.014400,0.316700,0.158200,0.336000,0.263000,-10.131000,-0.000357,0.001001,-0.009777
1764075359426488493,2025-11-25 18:25:59.423,-1.387000,1.795000,281.913000,0.018900,0.315600,0.161600,0.298000,0.254000,-10.142000,0.000738,0.000053,-0.008562
1764075359454698771,2025-11-25 18:25:59.450,-1.387000,1.794000,281.899000,0.017100,0.315600,0.157300,0.333000,0.245000,-10.176000,0.000967,-0.001112,-0.008091
1764075359475453290,2025-11-25 18:25:59.472,-1.387000,1.791000,281.886000,0.018900,0.315600,0.162700,0.295000,0.267000,-10.128000,0.000965,-0.002431,-0.010342
1764075359499544123,2025-11-25 18:25:59.497,-1.384000,1.788000,281.872000,0.018900,0.313700,0.160600,0.302000,0.223000,-10.163000,0.001593,-0.003292,-0.009405
1764075359523203530,2025-11-25 18:25:59.520,-1.383000,1.783000,281.858000,0.017900,0.312700,0.142500,0.339000,0.224000,-10.077000,0.002490,-0.003291,-0.009394
1764075359549782049,2025-11-25 18:25:59.546,-1.380000,1.780000,281.845000,0.016200,0.315700,0.163600,0.284000,0.274000,-10.137000,0.000983,-0.002976,-0.009902
1764075359575874197,2025-11-25 18:25:59.573,-1.378000,1.775000,281.831000,0.017200,0.318500,0.163600,0.337000,0.216000,-10.126000,0.002134,-0.001008,-0.009120
1764075359599894456,2025-11-25 18:25:59.597,-1.376000,1.771000,281.817000,0.018800,0.311700,0.141500,0.298000,0.258000,-10.130000,0.002110,-0.002789,-0.010273
1764075359624200419,2025-11-25 18:25:59.621,-1.374000,1.769000,281.803000,0.016100,0.312800,0.165800,0.319000,0.230000,-10.132000,0.001155,-0.001613,-0.008547
1764075359647642530,2025-11-25 18:25:59.644,-1.371000,1.765000,281.789000,0.018000,0.313700,0.165900,0.291000,0.235000,-10.156000,0.002701,-0.001539,-0.008407
1764075359674812030,2025-11-25 18:25:59.672,-1.369000,1.763000,281.775000,0.018000,0.315600,0.163700,0.310000,0.287000,-10.114000,0.001962,-0.001016,-0.008504
1764075359698195252,2025-11-25 18:25:59.695,-1.367000,1.759000,281.764000,0.017100,0.314700,0.163700,0.331000,0.243000,-10.161000,0.001882,-0.000479,-0.009353
1764075359726296567,2025-11-25 18:25:59.723,-1.365000,1.759000,281.751000,0.018000,0.313700,0.164800,0.269000,0.242000,-10.134000,0.000859,-0.000543,-0.006838
1764075359749050697,2025-11-25 18:25:59.746,-1.362000,1.756000,281.739000,0.017900,0.311800,0.165900,0.320000,0.234000,-10.128000,0.001218,-0.000869,-0.010076
1764075359777578808,2025-11-25 18:25:59.775,-1.360000,1.754000,281.726000,0.016200,0.315700,0.164700,0.301000,0.244000,-10.127000,0.001245,0.000720,-0.007399
1764075359799161012,2025-11-25 18:25:59.796,-1.358000,1.753000,281.714000,0.017000,0.310900,0.168000,0.316000,0.228000,-10.098000,0.001791,0.000153,-0.007370
1764075359823177641,2025-11-25 18:25:59.820,-1.357000,1.754000,281.702000,0.019700,0.309900,0.166000,0.320000,0.244000,-10.100000,0.000822,0.001289,-0.008281
1764075360140935548,2025-11-25 18:25:59.849,-1.357000,1.755000,281.690000,0.016100,0.312700,0.144500,0.296000,0.244000,-10.127000,0.000280,0.000021,-0.007422
1764075360141333956,2025-11-25 18:25:59.870,-1.356000,1.756000,281.678000,0.018800,0.313700,0.144700,0.311000,0.251000,-10.092000,0.001028,0.000828,-0.008735
1764075360141420530,2025-11-25 18:25:59.895,-1.355000,1.757000,281.667000,0.017100,0.315700,0.162600,0.304000,0.227000,-10.106000,0.000794,0.000660,-0.008043
1764075360142064715,2025-11-25 18:25:59.926,-1.356000,1.758000,281.656000,0.017100,0.312800,0.164800,0.329000,0.209000,-10.114000,-0.000312,0.001431,-0.007347
1764075360142189956,2025-11-25 18:25:59.947,-1.355000,1.758000,281.643000,0.014300,0.311900,0.160400,0.287000,0.263000,-10.129000,0.000426,0.000339,-0.008571
1764075360142239623,2025-11-25 18:25:59.973,-1.355000,1.758000,281.631000,0.017000,0.313700,0.143500,0.328000,0.234000,-10.118000,0.000770,-0.000702,-0.008419
1764075360142284900,2025-11-25 18:25:59.995,-1.355000,1.758000,281.618000,0.017000,0.311800,0.160500,0.311000,0.222000,-10.115000,0.000160,0.001084,-0.008626
1764075360142329234,2025-11-25 18:26:00.023,-1.355000,1.759000,281.604000,0.016200,0.314700,0.165800,0.294000,0.230000,-10.120000,-0.000742,0.001841,-0.009762
1764075360142374086,2025-11-25 18:26:00.089,-1.355000,1.760000,281.578000,0.015400,0.318600,0.161400,0.294000,0.266000,-10.140000,-0.000207,0.001001,-0.009089
1764075360142418123,2025-11-25 18:26:00.098,-1.356000,1.760000,281.564000,0.015100,0.309900,0.145600,0.321000,0.250000,-10.122000,-0.000181,0.000956,-0.009908
1764075360142464197,2025-11-25 18:26:00.126,-1.358000,1.760000,281.551000,0.017000,0.312800,0.160500,0.280000,0.230000,-10.083000,-0.001181,0.001162,-0.009153
1764075360149007104,2025-11-25 18:26:00.146,-1.358000,1.759000,281.536000,0.015300,0.315700,0.165700,0.317000,0.256000,-10.133000,0.000437,0.000233,-0.010004
1764075360175696752,2025-11-25 18:26:00.172,-1.359000,1.758000,281.521000,0.014300,0.313800,0.163600,0.278000,0.224000,-10.117000,-0.000068,-0.000260,-0.009369
1764075360198446234,2025-11-25 18:26:00.196,-1.360000,1.759000,281.507000,0.015400,0.318600,0.162500,0.296000,0.232000,-10.104000,-0.001218,0.000363,-0.008469
1764075360224421660,2025-11-25 18:26:00.222,-1.360000,1.759000,281.493000,0.016100,0.310900,0.162600,0.313000,0.268000,-10.142000,0.000211,0.000842,-0.008302
1764075360249709993,2025-11-25 18:26:00.246,-1.360000,1.759000,281.481000,0.014400,0.315700,0.163500,0.298000,0.225000,-10.135000,0.000683,0.000217,-0.007647
1764075360275134697,2025-11-25 18:26:00.271,-1.361000,1.760000,281.467000,0.014300,0.312800,0.160400,0.323000,0.223000,-10.169000,0.000553,0.001793,-0.008451
1764075360299730474,2025-11-25 18:26:00.296,-1.360000,1.761000,281.455000,0.015200,0.313800,0.162500,0.308000,0.263000,-10.113000,-0.000620,0.001178,-0.008824
1764075360324768104,2025-11-25 18:26:00.321,-1.361000,1.762000,281.443000,0.017100,0.314700,0.159400,0.330000,0.223000,-10.151000,0.000400,0.000709,-0.007973
1764075360349715493,2025-11-25 18:26:00.347,-1.362000,1.764000,281.431000,0.015200,0.312800,0.162500,0.292000,0.269000,-10.114000,-0.001351,0.002723,-0.007772
1764075360377985678,2025-11-25 18:26:00.375,-1.363000,1.766000,281.417000,0.013600,0.319600,0.164500,0.311000,0.263000,-10.118000,-0.001240,0.001186,-0.009286
1764075360397656604,2025-11-25 18:26:00.395,-1.366000,1.767000,281.403000,0.016100,0.312800,0.166800,0.329000,0.230000,-10.154000,-0.001393,0.001163,-0.007747
1764075360424461789,2025-11-25 18:26:00.422,-1.366000,1.771000,281.391000,0.013600,0.321500,0.165600,0.322000,0.256000,-10.112000,0.000515,0.002189,-0.008637
1764075360449692159,2025-11-25 18:26:00.446,-1.367000,1.773000,281.378000,0.014300,0.312800,0.146600,0.312000,0.221000,-10.138000,-0.000505,0.000271,-0.007126
1764075360477837048,2025-11-25 18:26:00.474,-1.368000,1.775000,281.366000,0.014400,0.314800,0.163500,0.282000,0.232000,-10.138000,0.000451,0.001272,-0.007307
1764075360498991196,2025-11-25 18:26:00.496,-1.370000,1.776000,281.354000,0.013500,0.317600,0.160300,0.308000,0.239000,-10.163000,-0.000546,0.001914,-0.007222
1764075360523350215,2025-11-25 18:26:00.521,-1.371000,1.776000,281.340000,0.013300,0.310900,0.141200,0.315000,0.213000,-10.125000,-0.000886,0.000674,-0.009023
1764075360550636548,2025-11-25 18:26:00.548,-1.372000,1.777000,281.328000,0.014400,0.315700,0.162500,0.323000,0.247000,-10.118000,0.000185,0.000423,-0.007468
1764075360572362659,2025-11-25 18:26:00.569,-1.374000,1.777000,281.315000,0.014300,0.312800,0.141300,0.287000,0.253000,-10.144000,-0.000992,0.000452,-0.008826
1764075360598464067,2025-11-25 18:26:00.596,-1.376000,1.779000,281.302000,0.013400,0.313700,0.142300,0.300000,0.209000,-10.128000,-0.001009,0.000015,-0.008601
1764075360624577122,2025-11-25 18:26:00.621,-1.376000,1.778000,281.289000,0.015400,0.318600,0.163600,0.324000,0.233000,-10.151000,-0.000138,-0.000468,-0.008547
1764075360648812456,2025-11-25 18:26:00.646,-1.377000,1.778000,281.277000,0.014400,0.314700,0.159300,0.287000,0.263000,-10.105000,-0.000675,0.000194,-0.009408
1764075360675910419,2025-11-25 18:26:00.672,-1.378000,1.777000,281.263000,0.016200,0.313800,0.162600,0.335000,0.234000,-10.124000,-0.000863,0.000121,-0.008496
1764075360699905363,2025-11-25 18:26:00.696,-1.380000,1.775000,281.251000,0.013400,0.316600,0.140100,0.302000,0.255000,-10.145000,-0.000199,-0.001785,-0.008923
1764075360725305530,2025-11-25 18:26:00.722,-1.381000,1.773000,281.237000,0.012500,0.313800,0.143300,0.338000,0.242000,-10.138000,-0.000910,-0.001795,-0.009085
1764075360749025678,2025-11-25 18:26:00.746,-1.382000,1.771000,281.223000,0.015300,0.314700,0.161500,0.316000,0.256000,-10.141000,0.000938,-0.000453,-0.007483
1764075360774887159,2025-11-25 18:26:00.772,-1.382000,1.769000,281.209000,0.014300,0.312800,0.160400,0.317000,0.274000,-10.092000,0.000849,-0.001597,-0.010067
1764075360799210918,2025-11-25 18:26:00.797,-1.382000,1.766000,281.195000,0.014300,0.312800,0.165700,0.335000,0.231000,-10.119000,0.001039,-0.002615,-0.009299
1764075360824824955,2025-11-25 18:26:00.821,-1.382000,1.764000,281.181000,0.015300,0.314700,0.163600,0.310000,0.254000,-10.122000,0.000608,-0.001915,-0.008029
1764075360849505381,2025-11-25 18:26:00.847,-1.382000,1.760000,281.167000,0.014500,0.319600,0.166700,0.334000,0.242000,-10.108000,0.001083,-0.002115,-0.009766
1764075360873520733,2025-11-25 18:26:00.871,-1.382000,1.756000,281.153000,0.014300,0.313700,0.143400,0.316000,0.250000,-10.123000,0.000564,-0.001914,-0.007921
1764075360899779937,2025-11-25 18:26:00.896,-1.380000,1.754000,281.139000,0.015300,0.315700,0.164600,0.337000,0.257000,-10.118000,0.002243,-0.002152,-0.010109
1764075360923458807,2025-11-25 18:26:00.920,-1.378000,1.751000,281.126000,0.015200,0.309900,0.163600,0.278000,0.248000,-10.090000,0.002445,-0.000735,-0.009768
1764075360948556307,2025-11-25 18:26:00.946,-1.377000,1.749000,281.113000,0.014300,0.313800,0.163500,0.305000,0.222000,-10.150000,0.001941,-0.000227,-0.007420
1764075360974861807,2025-11-25 18:26:00.971,-1.374000,1.747000,281.098000,0.014200,0.309900,0.143400,0.304000,0.241000,-10.138000,0.001876,-0.001127,-0.009747
1764075360998407955,2025-11-25 18:26:00.995,-1.372000,1.746000,281.086000,0.012600,0.317700,0.161300,0.304000,0.245000,-10.133000,0.001279,-0.000091,-0.009015
1764075361021769992,2025-11-25 18:26:01.019,-1.369000,1.745000,281.073000,0.016300,0.318600,0.161500,0.318000,0.235000,-10.148000,0.001961,-0.000712,-0.007595
1764075361095686641,2025-11-25 18:26:01.092,-1.363000,1.743000,281.051000,0.014300,0.310900,0.162500,0.347000,0.224000,-10.136000,0.002567,0.000172,-0.008020
1764075361110171492,2025-11-25 18:26:01.106,-1.360000,1.743000,281.038000,0.016100,0.312800,0.162600,0.286000,0.244000,-10.137000,0.002578,0.000293,-0.008957
1764075361132732715,2025-11-25 18:26:01.125,-1.357000,1.744000,281.025000,0.013500,0.317700,0.163500,0.287000,0.253000,-10.113000,0.002030,-0.000316,-0.008273
1764075361152592955,2025-11-25 18:26:01.150,-1.355000,1.744000,281.012000,0.013500,0.316700,0.163500,0.325000,0.251000,-10.150000,0.002304,0.000755,-0.005887
1764075361178666826,2025-11-25 18:26:01.172,-1.352000,1.747000,281.000000,0.014400,0.317600,0.164600,0.282000,0.240000,-10.118000,0.002275,0.002587,-0.007977
1764075361198219770,2025-11-25 18:26:01.195,-1.349000,1.749000,280.988000,0.013400,0.310900,0.162500,0.328000,0.226000,-10.079000,0.001866,0.001945,-0.008964
1764075361224520307,2025-11-25 18:26:01.221,-1.348000,1.753000,280.977000,0.012600,0.318600,0.159200,0.294000,0.243000,-10.143000,0.000984,0.003441,-0.007418
1764075361249946252,2025-11-25 18:26:01.246,-1.347000,1.756000,280.965000,0.012400,0.310000,0.162400,0.331000,0.223000,-10.146000,0.000544,0.002702,-0.009194
1764075361271835381,2025-11-25 18:26:01.269,-1.346000,1.760000,280.953000,0.011500,0.309100,0.163400,0.300000,0.232000,-10.126000,0.000770,0.002736,-0.007411
1764075361298674233,2025-11-25 18:26:01.296,-1.346000,1.765000,280.941000,0.013500,0.314800,0.162400,0.306000,0.224000,-10.138000,-0.000546,0.004344,-0.008716
1764075361322850659,2025-11-25 18:26:01.320,-1.347000,1.769000,280.928000,0.013400,0.313800,0.161400,0.312000,0.235000,-10.104000,-0.001816,0.004206,-0.009014
1764075361350114751,2025-11-25 18:26:01.347,-1.348000,1.774000,280.915000,0.012500,0.311900,0.164500,0.308000,0.226000,-10.096000,0.000096,0.002776,-0.008478
1764075361375502566,2025-11-25 18:26:01.372,-1.350000,1.778000,280.903000,0.012500,0.312900,0.161300,0.345000,0.225000,-10.126000,-0.000659,0.003128,-0.008121
1764075361399896381,2025-11-25 18:26:01.397,-1.352000,1.784000,280.889000,0.011700,0.318600,0.164400,0.301000,0.232000,-10.139000,-0.001281,0.003340,-0.009147
1764075361424270159,2025-11-25 18:26:01.421,-1.356000,1.788000,280.876000,0.011600,0.314800,0.161300,0.323000,0.220000,-10.178000,-0.002405,0.003450,-0.007607
1764075361448961900,2025-11-25 18:26:01.446,-1.359000,1.791000,280.863000,0.012500,0.313800,0.162400,0.305000,0.276000,-10.149000,-0.002408,0.002929,-0.008522
1764075361474520140,2025-11-25 18:26:01.472,-1.362000,1.795000,280.849000,0.010700,0.314800,0.158000,0.328000,0.235000,-10.126000,-0.003304,0.002997,-0.008906
1764075361498999085,2025-11-25 18:26:01.496,-1.365000,1.797000,280.835000,0.010800,0.317700,0.162300,0.326000,0.236000,-10.115000,-0.001443,0.000686,-0.008377
1764075361523706288,2025-11-25 18:26:01.521,-1.368000,1.800000,280.821000,0.010700,0.312900,0.162300,0.309000,0.268000,-10.132000,-0.002565,0.001115,-0.008724
1764075361549200492,2025-11-25 18:26:01.546,-1.373000,1.800000,280.807000,0.011600,0.314800,0.165500,0.340000,0.251000,-10.119000,-0.002960,0.000551,-0.010007
1764075361575589307,2025-11-25 18:26:01.572,-1.376000,1.801000,280.794000,0.011600,0.312900,0.164500,0.278000,0.249000,-10.090000,-0.001381,0.000360,-0.008223
1764075361598562492,2025-11-25 18:26:01.596,-1.379000,1.800000,280.782000,0.013500,0.315700,0.163500,0.345000,0.252000,-10.096000,-0.001757,-0.000638,-0.008329
1764075361622146585,2025-11-25 18:26:01.619,-1.383000,1.799000,280.770000,0.009800,0.312900,0.166500,0.301000,0.248000,-10.089000,-0.002445,-0.001191,-0.007749
1764075361650322196,2025-11-25 18:26:01.647,-1.386000,1.797000,280.758000,0.012400,0.310000,0.163500,0.352000,0.244000,-10.117000,-0.001319,-0.002327,-0.006468
1764075361675704418,2025-11-25 18:26:01.672,-1.390000,1.794000,280.746000,0.012600,0.319500,0.142200,0.317000,0.259000,-10.148000,-0.001047,-0.001652,-0.008560
1764075361699726751,2025-11-25 18:26:01.697,-1.391000,1.790000,280.735000,0.012500,0.315700,0.151800,0.326000,0.238000,-10.146000,-0.000145,-0.003032,-0.008047
1764075361724536418,2025-11-25 18:26:01.721,-1.392000,1.785000,280.722000,0.010700,0.313800,0.158100,0.328000,0.246000,-10.139000,-0.000532,-0.003850,-0.007928
1764075361749685196,2025-11-25 18:26:01.746,-1.392000,1.780000,280.710000,0.010700,0.313900,0.160200,0.298000,0.225000,-10.088000,0.000091,-0.003992,-0.008251
1764075361776247881,2025-11-25 18:26:01.773,-1.393000,1.774000,280.698000,0.008900,0.315800,0.159000,0.339000,0.245000,-10.146000,0.001584,-0.004025,-0.007219
1764075361799626788,2025-11-25 18:26:01.797,-1.392000,1.767000,280.685000,0.010700,0.315800,0.160200,0.297000,0.258000,-10.111000,0.000931,-0.005193,-0.008712
1764075361823861233,2025-11-25 18:26:01.820,-1.391000,1.760000,280.672000,0.009800,0.313900,0.163300,0.315000,0.238000,-10.098000,0.002338,-0.004654,-0.009767
1764075361849842510,2025-11-25 18:26:01.847,-1.389000,1.752000,280.659000,0.012500,0.311900,0.162400,0.279000,0.289000,-10.076000,0.001875,-0.004372,-0.007913
1764075361874866844,2025-11-25 18:26:01.872,-1.387000,1.746000,280.645000,0.010700,0.315700,0.152700,0.318000,0.269000,-10.106000,0.001692,-0.004156,-0.009329
1764075361899106270,2025-11-25 18:26:01.896,-1.385000,1.739000,280.633000,0.011600,0.313800,0.144300,0.304000,0.230000,-10.104000,0.001881,-0.003715,-0.008256
1764075361926713566,2025-11-25 18:26:01.923,-1.382000,1.734000,280.622000,0.010700,0.312900,0.163400,0.260000,0.259000,-10.144000,0.003091,-0.003116,-0.008288
1764075361951299696,2025-11-25 18:26:01.948,-1.380000,1.728000,280.610000,0.010600,0.311900,0.145300,0.316000,0.215000,-10.133000,0.001714,-0.002596,-0.009422
1764075361973187566,2025-11-25 18:26:01.970,-1.377000,1.725000,280.598000,0.009800,0.312000,0.164400,0.282000,0.244000,-10.097000,0.002799,-0.002794,-0.008041
1764075361999192973,2025-11-25 18:26:01.996,-1.375000,1.723000,280.582000,0.012600,0.316700,0.160200,0.315000,0.238000,-10.119000,0.001553,-0.000976,-0.009400
1764075362024711307,2025-11-25 18:26:02.021,-1.372000,1.720000,280.570000,0.013400,0.310900,0.164600,0.308000,0.236000,-10.081000,0.001227,-0.000433,-0.009875
1764075362089886973,2025-11-25 18:26:02.087,-1.367000,1.719000,280.544000,0.010600,0.309100,0.165500,0.306000,0.240000,-10.130000,0.000782,0.000732,-0.010507
1764075362099313325,2025-11-25 18:26:02.097,-1.365000,1.722000,280.532000,0.009800,0.312900,0.168600,0.296000,0.236000,-10.117000,0.001189,0.001534,-0.008645
1764075362124091214,2025-11-25 18:26:02.121,-1.363000,1.724000,280.518000,0.011600,0.311900,0.166600,0.309000,0.233000,-10.146000,0.001224,0.003181,-0.007945
1764075362151634825,2025-11-25 18:26:02.148,-1.362000,1.727000,280.505000,0.008000,0.312000,0.165400,0.280000,0.249000,-10.111000,0.001004,0.003441,-0.011576
1764075362176080288,2025-11-25 18:26:02.173,-1.362000,1.732000,280.492000,0.007900,0.312000,0.163200,0.311000,0.230000,-10.136000,0.000858,0.004005,-0.007801
1764075362199958510,2025-11-25 18:26:02.197,-1.362000,1.738000,280.477000,0.011600,0.311900,0.161300,0.270000,0.253000,-10.127000,-0.000496,0.005344,-0.009092
1764075362223547825,2025-11-25 18:26:02.220,-1.363000,1.744000,280.464000,0.008800,0.311000,0.165400,0.311000,0.217000,-10.125000,-0.000301,0.005403,-0.009415
1764075362249416806,2025-11-25 18:26:02.246,-1.363000,1.750000,280.451000,0.010700,0.316700,0.142100,0.333000,0.236000,-10.183000,0.000046,0.005388,-0.007317
1764075362275490658,2025-11-25 18:26:02.272,-1.364000,1.759000,280.437000,0.007200,0.317800,0.162100,0.281000,0.264000,-10.125000,-0.000694,0.006326,-0.009956
1764075362299230992,2025-11-25 18:26:02.296,-1.365000,1.767000,280.424000,0.011500,0.312800,0.142200,0.319000,0.218000,-10.128000,-0.000449,0.006665,-0.007747
1764075362322160325,2025-11-25 18:26:02.319,-1.366000,1.776000,280.412000,0.010600,0.311000,0.161300,0.279000,0.251000,-10.150000,-0.000494,0.005622,-0.008093
1764075362347958492,2025-11-25 18:26:02.345,-1.366000,1.784000,280.401000,0.011600,0.311900,0.153900,0.335000,0.260000,-10.093000,0.000307,0.006951,-0.007727
1764075362375246269,2025-11-25 18:26:02.372,-1.366000,1.792000,280.390000,0.008000,0.312000,0.165400,0.288000,0.226000,-10.134000,0.000000,0.005812,-0.007353
1764075362399446158,2025-11-25 18:26:02.397,-1.366000,1.801000,280.377000,0.009700,0.312900,0.141000,0.340000,0.259000,-10.140000,0.000026,0.006208,-0.007419
1764075362423568195,2025-11-25 18:26:02.420,-1.367000,1.808000,280.366000,0.009800,0.313900,0.165400,0.329000,0.241000,-10.124000,-0.001435,0.003839,-0.008278
1764075362449201306,2025-11-25 18:26:02.446,-1.367000,1.815000,280.354000,0.008000,0.313900,0.163200,0.310000,0.228000,-10.115000,0.000563,0.003644,-0.006464
1764075362474567140,2025-11-25 18:26:02.471,-1.367000,1.820000,280.341000,0.009700,0.311000,0.164400,0.340000,0.256000,-10.100000,0.000049,0.003423,-0.008665
1764075362498653806,2025-11-25 18:26:02.496,-1.368000,1.825000,280.329000,0.008900,0.315800,0.162200,0.294000,0.230000,-10.112000,-0.000818,0.002782,-0.008685
1764075362523203492,2025-11-25 18:26:02.520,-1.367000,1.828000,280.316000,0.008800,0.312900,0.144200,0.350000,0.232000,-10.126000,0.001197,0.001366,-0.007857
1764075362548764806,2025-11-25 18:26:02.546,-1.366000,1.829000,280.303000,0.007100,0.314900,0.161000,0.320000,0.264000,-10.118000,0.000150,0.000917,-0.009031
1764075362574278214,2025-11-25 18:26:02.572,-1.365000,1.829000,280.292000,0.010700,0.313800,0.158100,0.358000,0.234000,-10.120000,0.000894,-0.000635,-0.008392
1764075362597753788,2025-11-25 18:26:02.595,-1.364000,1.828000,280.280000,0.008000,0.314900,0.159000,0.321000,0.240000,-10.118000,0.001328,-0.000510,-0.009156
1764075362623277843,2025-11-25 18:26:02.620,-1.362000,1.825000,280.267000,0.009000,0.316800,0.163200,0.311000,0.248000,-10.116000,0.000898,-0.002207,-0.009865
1764075362649736751,2025-11-25 18:26:02.646,-1.362000,1.820000,280.254000,0.007200,0.317800,0.161000,0.359000,0.235000,-10.109000,0.000552,-0.003755,-0.007687
1764075362671749806,2025-11-25 18:26:02.669,-1.362000,1.816000,280.241000,0.009800,0.313900,0.162300,0.288000,0.235000,-10.141000,0.000555,-0.004026,-0.009742
1764075362698488436,2025-11-25 18:26:02.696,-1.361000,1.809000,280.229000,0.008900,0.315800,0.164300,0.353000,0.227000,-10.110000,0.000725,-0.003346,-0.009371
1764075362722785806,2025-11-25 18:26:02.720,-1.360000,1.802000,280.216000,0.008900,0.315800,0.164300,0.323000,0.232000,-10.099000,0.000498,-0.005587,-0.007235
1764075362747790028,2025-11-25 18:26:02.745,-1.360000,1.794000,280.202000,0.007100,0.313000,0.164200,0.330000,0.268000,-10.123000,0.000186,-0.006545,-0.010207
1764075362774509084,2025-11-25 18:26:02.771,-1.361000,1.784000,280.188000,0.008900,0.315800,0.144100,0.310000,0.211000,-10.096000,-0.000121,-0.006813,-0.008569
1764075362799161973,2025-11-25 18:26:02.797,-1.361000,1.776000,280.175000,0.008800,0.311000,0.164400,0.326000,0.239000,-10.134000,-0.001209,-0.007874,-0.007958
1764075362823470454,2025-11-25 18:26:02.820,-1.363000,1.765000,280.163000,0.007100,0.313000,0.162100,0.310000,0.258000,-10.101000,-0.001541,-0.006553,-0.008938
1764075362849211177,2025-11-25 18:26:02.846,-1.365000,1.756000,280.151000,0.007200,0.321600,0.157800,0.276000,0.222000,-10.135000,-0.001451,-0.007266,-0.008244
1764075362873818473,2025-11-25 18:26:02.871,-1.367000,1.744000,280.139000,0.010700,0.312900,0.163400,0.313000,0.226000,-10.132000,-0.001421,-0.006356,-0.009046
1764075362898548121,2025-11-25 18:26:02.895,-1.368000,1.735000,280.128000,0.008000,0.313000,0.162200,0.281000,0.249000,-10.100000,-0.000830,-0.005035,-0.009054
1764075362927040825,2025-11-25 18:26:02.924,-1.370000,1.727000,280.116000,0.007100,0.316800,0.158900,0.314000,0.218000,-10.115000,-0.001138,-0.005585,-0.008485
1764075362950058751,2025-11-25 18:26:02.947,-1.372000,1.718000,280.104000,0.009000,0.321500,0.155800,0.284000,0.237000,-10.072000,-0.002010,-0.005434,-0.007886
1764075362974447658,2025-11-25 18:26:02.971,-1.374000,1.713000,280.093000,0.009000,0.317700,0.160100,0.308000,0.247000,-10.101000,-0.000305,-0.004014,-0.008005
1764075362999739417,2025-11-25 18:26:02.995,-1.376000,1.707000,280.081000,0.008900,0.314800,0.160100,0.301000,0.245000,-10.121000,-0.000936,-0.002804,-0.007991
1764075363022063769,2025-11-25 18:26:03.019,-1.377000,1.704000,280.070000,0.008000,0.314900,0.163200,0.266000,0.249000,-10.072000,-0.001504,-0.000789,-0.008627
1764075363091589825,2025-11-25 18:26:03.089,-1.380000,1.701000,280.047000,0.009800,0.312900,0.160100,0.293000,0.247000,-10.126000,-0.000529,0.000334,-0.007704
1764075363100676565,2025-11-25 18:26:03.098,-1.380000,1.703000,280.036000,0.007100,0.313000,0.164200,0.314000,0.248000,-10.114000,0.000237,0.001506,-0.008670
1764075363126398269,2025-11-25 18:26:03.123,-1.380000,1.705000,280.025000,0.007200,0.320600,0.163100,0.275000,0.251000,-10.155000,0.001154,0.002391,-0.006873
1764075363150713824,2025-11-25 18:26:03.148,-1.379000,1.710000,280.013000,0.007100,0.315800,0.160000,0.286000,0.278000,-10.102000,0.001703,0.005069,-0.008105
1764075363175261862,2025-11-25 18:26:03.172,-1.378000,1.715000,280.002000,0.007000,0.312000,0.166400,0.277000,0.244000,-10.134000,0.000700,0.005230,-0.008964
1764075363199720084,2025-11-25 18:26:03.197,-1.376000,1.723000,279.991000,0.007100,0.313900,0.163200,0.277000,0.232000,-10.118000,0.002402,0.005688,-0.008530
1764075363223280806,2025-11-25 18:26:03.220,-1.373000,1.730000,279.980000,0.009000,0.318700,0.165400,0.309000,0.253000,-10.098000,0.001821,0.007058,-0.009876
1764075363249478417,2025-11-25 18:26:03.247,-1.370000,1.740000,279.968000,0.008900,0.313900,0.162200,0.277000,0.244000,-10.130000,0.003738,0.006437,-0.006745
1764075363274605380,2025-11-25 18:26:03.271,-1.368000,1.748000,279.955000,0.008000,0.314900,0.165300,0.309000,0.244000,-10.135000,0.002743,0.006407,-0.008843
1764075363298660454,2025-11-25 18:26:03.296,-1.364000,1.758000,279.942000,0.008800,0.310100,0.161200,0.294000,0.257000,-10.099000,0.003200,0.006757,-0.009110
1764075363322333750,2025-11-25 18:26:03.319,-1.361000,1.769000,279.929000,0.009800,0.312900,0.162300,0.307000,0.223000,-10.134000,0.002191,0.007120,-0.007532
1764075363348591898,2025-11-25 18:26:03.345,-1.357000,1.778000,279.917000,0.007000,0.311100,0.164300,0.315000,0.233000,-10.138000,0.002396,0.007834,-0.007354
1764075363372886843,2025-11-25 18:26:03.370,-1.351000,1.789000,279.903000,0.007100,0.316700,0.141900,0.319000,0.245000,-10.053000,0.001984,0.007355,-0.008237
1764075363398566232,2025-11-25 18:26:03.396,-1.349000,1.798000,279.890000,0.006100,0.312000,0.160000,0.339000,0.225000,-10.164000,0.001561,0.005956,-0.007279
1764075363422846306,2025-11-25 18:26:03.420,-1.347000,1.808000,279.878000,0.006200,0.316800,0.162000,0.309000,0.272000,-10.112000,0.000858,0.004774,-0.009373
1764075363449048713,2025-11-25 18:26:03.446,-1.346000,1.816000,279.866000,0.008800,0.312000,0.154800,0.363000,0.194000,-10.147000,0.000379,0.004534,-0.007723
1764075363474059991,2025-11-25 18:26:03.471,-1.345000,1.823000,279.853000,0.007100,0.313000,0.163200,0.314000,0.205000,-10.131000,0.000613,0.004261,-0.008196
1764075363498781306,2025-11-25 18:26:03.496,-1.345000,1.829000,279.840000,0.006200,0.316800,0.163100,0.336000,0.243000,-10.136000,-0.001660,0.002678,-0.010310
1764075363523337472,2025-11-25 18:26:03.520,-1.345000,1.831000,279.828000,0.006100,0.311100,0.164200,0.336000,0.217000,-10.151000,-0.000259,0.001107,-0.008030
1764075363548511528,2025-11-25 18:26:03.545,-1.346000,1.834000,279.815000,0.005400,0.319700,0.167300,0.337000,0.242000,-10.149000,-0.001075,-0.000471,-0.008158
1764075363574518380,2025-11-25 18:26:03.572,-1.349000,1.833000,279.804000,0.007000,0.310100,0.162100,0.347000,0.259000,-10.110000,-0.001826,-0.000979,-0.008716
1764075363597726991,2025-11-25 18:26:03.595,-1.353000,1.832000,279.791000,0.006100,0.312000,0.158900,0.320000,0.229000,-10.105000,-0.001898,-0.002822,-0.008466
1764075363624015139,2025-11-25 18:26:03.620,-1.356000,1.827000,279.779000,0.006100,0.313000,0.158900,0.349000,0.233000,-10.136000,-0.001484,-0.003719,-0.008813
1764075363647884491,2025-11-25 18:26:03.645,-1.360000,1.822000,279.767000,0.007000,0.312000,0.158900,0.320000,0.262000,-10.147000,-0.003246,-0.003898,-0.008006
1764075363674683435,2025-11-25 18:26:03.671,-1.364000,1.815000,279.751000,0.007100,0.313900,0.158900,0.369000,0.233000,-10.148000,-0.002057,-0.005443,-0.009007
1764075363699313861,2025-11-25 18:26:03.697,-1.368000,1.806000,279.739000,0.006300,0.320700,0.162000,0.341000,0.254000,-10.130000,-0.002659,-0.006267,-0.009170
1764075363721833343,2025-11-25 18:26:03.719,-1.371000,1.798000,279.727000,0.007100,0.315800,0.143000,0.315000,0.248000,-10.128000,-0.002169,-0.007483,-0.007896
1764075363748474176,2025-11-25 18:26:03.746,-1.375000,1.785000,279.714000,0.006100,0.313000,0.158900,0.326000,0.259000,-10.138000,-0.001834,-0.008908,-0.008796
1764075363774174732,2025-11-25 18:26:03.771,-1.378000,1.776000,279.701000,0.005400,0.319700,0.156700,0.279000,0.242000,-10.117000,-0.000725,-0.007431,-0.008245
1764075363798377139,2025-11-25 18:26:03.796,-1.380000,1.763000,279.689000,0.004400,0.314900,0.160900,0.331000,0.229000,-10.143000,-0.000977,-0.007412,-0.007439
1764075363825035176,2025-11-25 18:26:03.822,-1.383000,1.753000,279.678000,0.005400,0.318800,0.162000,0.264000,0.271000,-10.137000,-0.001126,-0.007251,-0.008206
1764075363850631694,2025-11-25 18:26:03.848,-1.383000,1.741000,279.667000,0.006100,0.311100,0.161000,0.310000,0.230000,-10.116000,0.000171,-0.006110,-0.008619
1764075363874847213,2025-11-25 18:26:03.872,-1.384000,1.730000,279.655000,0.003400,0.315900,0.142800,0.296000,0.266000,-10.109000,0.001503,-0.006216,-0.008078
1764075363897867472,2025-11-25 18:26:03.895,-1.383000,1.721000,279.641000,0.006100,0.310100,0.164200,0.301000,0.254000,-10.127000,0.001201,-0.005688,-0.009904
1764075363924231324,2025-11-25 18:26:03.921,-1.381000,1.711000,279.629000,0.003400,0.313000,0.161900,0.308000,0.235000,-10.164000,0.001492,-0.005162,-0.008189
1764075363948163435,2025-11-25 18:26:03.945,-1.378000,1.706000,279.616000,0.004300,0.312100,0.163100,0.259000,0.262000,-10.116000,0.002855,-0.002515,-0.008003
1764075363975651694,2025-11-25 18:26:03.972,-1.375000,1.700000,279.604000,0.004400,0.317800,0.164100,0.312000,0.228000,-10.103000,0.002010,-0.002406,-0.008048
1764075363997516454,2025-11-25 18:26:03.995,-1.371000,1.698000,279.591000,0.005200,0.313900,0.140800,0.254000,0.243000,-10.104000,0.002469,0.000665,-0.007830
1764075364025482046,2025-11-25 18:26:04.023,-1.367000,1.697000,279.577000,0.006300,0.321600,0.141800,0.322000,0.234000,-10.111000,0.003037,0.000790,-0.008210
1764075364086580102,2025-11-25 18:26:04.083,-1.359000,1.701000,279.553000,0.006200,0.314000,0.167400,0.286000,0.222000,-10.108000,0.003220,0.002279,-0.007702
1764075364095584417,2025-11-25 18:26:04.093,-1.356000,1.705000,279.541000,0.004300,0.312900,0.138600,0.281000,0.263000,-10.116000,0.002866,0.004859,-0.008153
1764075364124995842,2025-11-25 18:26:04.122,-1.353000,1.711000,279.529000,0.006100,0.314800,0.141900,0.274000,0.230000,-10.105000,0.001549,0.003991,-0.008818
1764075364150704231,2025-11-25 18:26:04.148,-1.350000,1.719000,279.517000,0.004400,0.314900,0.158800,0.305000,0.199000,-10.169000,0.001762,0.006258,-0.008295
1764075364176412139,2025-11-25 18:26:04.173,-1.347000,1.727000,279.504000,0.006200,0.313900,0.162100,0.277000,0.270000,-10.068000,0.001273,0.005869,-0.009406
1764075364197435398,2025-11-25 18:26:04.195,-1.346000,1.736000,279.493000,0.006100,0.312000,0.165300,0.342000,0.217000,-10.139000,0.001058,0.006242,-0.007361
1764075364223396620,2025-11-25 18:26:04.220,-1.346000,1.745000,279.479000,0.006200,0.315800,0.146100,0.291000,0.238000,-10.124000,-0.000224,0.006299,-0.008411
1764075364250894305,2025-11-25 18:26:04.246,-1.345000,1.755000,279.468000,0.005400,0.317800,0.165200,0.331000,0.250000,-10.114000,0.000193,0.007340,-0.009158
1764075364274185602,2025-11-25 18:26:04.271,-1.347000,1.765000,279.455000,0.006200,0.315900,0.158900,0.312000,0.236000,-10.135000,-0.000888,0.006316,-0.006526
1764075364298763990,2025-11-25 18:26:04.296,-1.348000,1.776000,279.443000,0.006200,0.314000,0.165300,0.317000,0.246000,-10.114000,-0.001471,0.008084,-0.008748
1764075364322822305,2025-11-25 18:26:04.320,-1.350000,1.786000,279.431000,0.004400,0.317800,0.165100,0.338000,0.238000,-10.116000,-0.001135,0.007392,-0.007244
1764075364348607861,2025-11-25 18:26:04.345,-1.353000,1.795000,279.419000,0.006200,0.314000,0.164200,0.301000,0.222000,-10.135000,-0.001819,0.006162,-0.006975
1764075364375262639,2025-11-25 18:26:04.372,-1.356000,1.802000,279.406000,0.004400,0.316900,0.163000,0.346000,0.255000,-10.116000,-0.001085,0.005099,-0.008910
1764075364399549694,2025-11-25 18:26:04.397,-1.360000,1.807000,279.394000,0.005200,0.312100,0.167300,0.324000,0.236000,-10.159000,-0.002817,0.003545,-0.007349
1764075364422752990,2025-11-25 18:26:04.420,-1.363000,1.813000,279.383000,0.003300,0.309200,0.162000,0.344000,0.223000,-10.141000,-0.001654,0.002391,-0.006592
1764075364449140583,2025-11-25 18:26:04.446,-1.366000,1.816000,279.371000,0.005200,0.310100,0.163100,0.316000,0.237000,-10.134000,-0.002006,0.002128,-0.008450
1764075364474190305,2025-11-25 18:26:04.471,-1.369000,1.819000,279.360000,0.005200,0.311100,0.165200,0.326000,0.224000,-10.112000,-0.001969,0.001334,-0.008392
1764075364497697101,2025-11-25 18:26:04.495,-1.372000,1.819000,279.348000,0.003400,0.311100,0.161900,0.346000,0.261000,-10.104000,-0.002112,-0.000863,-0.008015
1764075364524352138,2025-11-25 18:26:04.521,-1.374000,1.817000,279.335000,0.004400,0.317800,0.165100,0.310000,0.261000,-10.124000,-0.001033,-0.001425,-0.007910
1764075364548232750,2025-11-25 18:26:04.545,-1.377000,1.814000,279.325000,0.004400,0.314900,0.164100,0.365000,0.231000,-10.141000,-0.001775,-0.002457,-0.005776
1764075364575305138,2025-11-25 18:26:04.572,-1.379000,1.810000,279.312000,0.001600,0.314000,0.162900,0.330000,0.254000,-10.123000,-0.001385,-0.003873,-0.009485
1764075364598864490,2025-11-25 18:26:04.596,-1.380000,1.805000,279.299000,0.003500,0.317800,0.159800,0.336000,0.233000,-10.099000,0.000294,-0.004230,-0.008793
1764075364625199509,2025-11-25 18:26:04.622,-1.382000,1.797000,279.286000,0.002600,0.315000,0.164000,0.315000,0.235000,-10.107000,-0.000687,-0.004737,-0.008136
1764075364649593379,2025-11-25 18:26:04.647,-1.382000,1.791000,279.273000,0.002600,0.316900,0.164000,0.318000,0.259000,-10.112000,-0.000555,-0.006791,-0.008421
1764075364675331009,2025-11-25 18:26:04.672,-1.383000,1.782000,279.261000,0.003500,0.314000,0.165100,0.300000,0.261000,-10.163000,0.000515,-0.004989,-0.007197
1764075364698622287,2025-11-25 18:26:04.696,-1.383000,1.775000,279.250000,0.003500,0.318700,0.142800,0.295000,0.236000,-10.119000,0.000136,-0.004056,-0.007942
1764075364723604064,2025-11-25 18:26:04.721,-1.383000,1.767000,279.238000,0.003400,0.311100,0.159800,0.341000,0.252000,-10.142000,0.001027,-0.005593,-0.008937
1764075364750117953,2025-11-25 18:26:04.747,-1.382000,1.759000,279.225000,0.003500,0.315000,0.164000,0.294000,0.255000,-10.173000,0.001563,-0.005243,-0.007817
1764075364772811564,2025-11-25 18:26:04.770,-1.381000,1.752000,279.211000,0.003400,0.312100,0.167200,0.323000,0.269000,-10.104000,0.000903,-0.003590,-0.008400
1764075364799167342,2025-11-25 18:26:04.796,-1.381000,1.744000,279.200000,0.006300,0.317800,0.164200,0.303000,0.233000,-10.117000,0.001079,-0.004932,-0.008845
1764075364824758768,2025-11-25 18:26:04.822,-1.379000,1.738000,279.188000,0.002400,0.309200,0.140700,0.283000,0.241000,-10.116000,0.001895,-0.003716,-0.007609
1764075364851234620,2025-11-25 18:26:04.848,-1.377000,1.732000,279.176000,0.001700,0.315900,0.158600,0.294000,0.261000,-10.098000,0.001321,-0.003336,-0.008605
1764075364877075694,2025-11-25 18:26:04.873,-1.375000,1.728000,279.164000,0.003500,0.314900,0.157700,0.270000,0.242000,-10.134000,0.001630,-0.001840,-0.009284
1764075364899048860,2025-11-25 18:26:04.896,-1.375000,1.724000,279.151000,0.001800,0.322600,0.157500,0.307000,0.244000,-10.094000,0.000897,-0.002143,-0.007649
1764075364928634305,2025-11-25 18:26:04.926,-1.373000,1.721000,279.138000,0.004300,0.314000,0.157700,0.260000,0.249000,-10.126000,0.001164,-0.001005,-0.007878
1764075364948479027,2025-11-25 18:26:04.946,-1.371000,1.720000,279.128000,0.000700,0.314000,0.160700,0.337000,0.246000,-10.140000,0.002504,0.000731,-0.007958
1764075364975253416,2025-11-25 18:26:04.972,-1.370000,1.720000,279.114000,0.001700,0.316000,0.163900,0.272000,0.252000,-10.128000,0.001878,0.001767,-0.007986
1764075364999049879,2025-11-25 18:26:04.996,-1.366000,1.721000,279.103000,0.001700,0.317900,0.161800,0.315000,0.227000,-10.092000,0.001895,0.002318,-0.009109
1764075365027494805,2025-11-25 18:26:05.025,-1.364000,1.724000,279.090000,0.002500,0.313100,0.161900,0.315000,0.220000,-10.151000,0.002233,0.003499,-0.007822
1764075365092571805,2025-11-25 18:26:05.090,-1.358000,1.731000,279.064000,0.000700,0.317800,0.141600,0.296000,0.228000,-10.117000,0.001948,0.003328,-0.008342
1764075365101749064,2025-11-25 18:26:05.099,-1.356000,1.736000,279.050000,0.001600,0.311100,0.159700,0.277000,0.235000,-10.119000,0.001466,0.003925,-0.008221
1764075365124624249,2025-11-25 18:26:05.122,-1.355000,1.740000,279.039000,0.002500,0.312100,0.161900,0.316000,0.240000,-10.106000,0.000260,0.003578,-0.008725
1764075365148514397,2025-11-25 18:26:05.145,-1.353000,1.745000,279.026000,0.002600,0.315900,0.162900,0.288000,0.227000,-10.157000,0.000367,0.004043,-0.008190
1764075365178048379,2025-11-25 18:26:05.175,-1.352000,1.750000,279.013000,0.000800,0.316000,0.160700,0.327000,0.243000,-10.130000,0.000108,0.003293,-0.007914
1764075365198559083,2025-11-25 18:26:05.196,-1.351000,1.754000,279.000000,0.002500,0.314000,0.158700,0.312000,0.213000,-10.122000,-0.000032,0.003690,-0.009553
1764075365224297657,2025-11-25 18:26:05.221,-1.351000,1.760000,278.989000,0.002700,0.320700,0.160800,0.306000,0.216000,-10.155000,-0.001249,0.003573,-0.007210
1764075365250422620,2025-11-25 18:26:05.247,-1.351000,1.764000,278.977000,-0.000000,0.321700,0.159600,0.328000,0.249000,-10.097000,0.000060,0.003476,-0.008255
1764075365276175842,2025-11-25 18:26:05.273,-1.351000,1.770000,278.965000,0.002600,0.318800,0.161800,0.281000,0.242000,-10.115000,-0.000485,0.002773,-0.009382
1764075365299868619,2025-11-25 18:26:05.297,-1.354000,1.773000,278.953000,0.001700,0.316000,0.163900,0.342000,0.217000,-10.166000,-0.001230,0.002641,-0.007768
1764075365324310323,2025-11-25 18:26:05.321,-1.356000,1.776000,278.941000,0.003400,0.312100,0.164100,0.321000,0.262000,-10.117000,-0.000967,0.002264,-0.008724
1764075365349840064,2025-11-25 18:26:05.347,-1.359000,1.779000,278.930000,0.000700,0.314000,0.142700,0.337000,0.233000,-10.132000,-0.002470,0.001660,-0.007547
1764075365376084675,2025-11-25 18:26:05.373,-1.363000,1.780000,278.918000,0.002600,0.316900,0.165000,0.306000,0.251000,-10.141000,-0.001475,0.001540,-0.008537
1764075365399650490,2025-11-25 18:26:05.396,-1.367000,1.782000,278.906000,0.004400,0.315900,0.158800,0.329000,0.246000,-10.110000,-0.002002,0.000125,-0.008986
1764075365425204064,2025-11-25 18:26:05.422,-1.371000,1.783000,278.894000,-0.000100,0.316900,0.163800,0.324000,0.242000,-10.136000,-0.001564,0.001144,-0.008859
1764075365450627990,2025-11-25 18:26:05.447,-1.374000,1.783000,278.881000,-0.000300,0.314000,0.139400,0.267000,0.259000,-10.135000,-0.002002,-0.000386,-0.008104
1764075365474827453,2025-11-25 18:26:05.472,-1.378000,1.782000,278.867000,0.002500,0.314000,0.144900,0.357000,0.228000,-10.104000,-0.001908,0.000443,-0.008984
1764075365499557027,2025-11-25 18:26:05.496,-1.382000,1.781000,278.856000,-0.000200,0.315000,0.164900,0.298000,0.260000,-10.105000,-0.001458,-0.002031,-0.007624
1764075365524043101,2025-11-25 18:26:05.521,-1.385000,1.779000,278.844000,0.002600,0.316800,0.147000,0.343000,0.259000,-10.088000,-0.001527,-0.000169,-0.009140
1764075365549106693,2025-11-25 18:26:05.546,-1.387000,1.777000,278.833000,0.000700,0.313100,0.166000,0.312000,0.270000,-10.179000,-0.000066,-0.001673,-0.007971
1764075365575302823,2025-11-25 18:26:05.572,-1.390000,1.776000,278.820000,0.000700,0.311200,0.162900,0.311000,0.256000,-10.123000,0.000039,0.000214,-0.009165
1764075365599281638,2025-11-25 18:26:05.596,-1.390000,1.773000,278.809000,-0.000300,0.310200,0.165000,0.333000,0.261000,-10.099000,0.000014,-0.001442,-0.006895
1764075365623344323,2025-11-25 18:26:05.620,-1.391000,1.771000,278.798000,-0.002000,0.314100,0.157400,0.295000,0.253000,-10.126000,0.000044,-0.001199,-0.008330
1764075365650720342,2025-11-25 18:26:05.648,-1.392000,1.768000,278.785000,0.002500,0.314000,0.160800,0.327000,0.244000,-10.143000,0.000485,-0.001222,-0.008457
1764075365676041045,2025-11-25 18:26:05.673,-1.390000,1.765000,278.773000,0.000700,0.315000,0.163900,0.296000,0.242000,-10.149000,0.001598,-0.001259,-0.008102
1764075365699672156,2025-11-25 18:26:05.697,-1.389000,1.762000,278.762000,0.001600,0.312100,0.161900,0.339000,0.260000,-10.106000,0.001212,-0.001635,-0.006690
1764075365724150379,2025-11-25 18:26:05.721,-1.388000,1.761000,278.749000,-0.000900,0.321800,0.161600,0.316000,0.262000,-10.113000,0.002120,-0.001661,-0.007334
1764075365749142934,2025-11-25 18:26:05.746,-1.385000,1.759000,278.737000,0.000700,0.315000,0.160700,0.300000,0.234000,-10.127000,0.003159,-0.000301,-0.007356
1764075365775078212,2025-11-25 18:26:05.772,-1.382000,1.757000,278.726000,0.001600,0.313100,0.161800,0.339000,0.232000,-10.123000,0.003723,-0.001413,-0.007447
1764075365799157860,2025-11-25 18:26:05.796,-1.379000,1.758000,278.714000,0.000700,0.311200,0.161800,0.294000,0.241000,-10.118000,0.002930,0.000068,-0.009532
1764075365823289693,2025-11-25 18:26:05.820,-1.375000,1.758000,278.702000,0.001600,0.314000,0.162900,0.321000,0.236000,-10.116000,0.002216,0.000898,-0.007718
1764075365850681082,2025-11-25 18:26:05.848,-1.371000,1.759000,278.691000,-0.000200,0.311200,0.164900,0.298000,0.256000,-10.155000,0.003705,0.000938,-0.008510
1764075365876041582,2025-11-25 18:26:05.872,-1.366000,1.760000,278.681000,0.000700,0.314100,0.162900,0.307000,0.236000,-10.120000,0.002546,-0.000832,-0.007626
1764075365899608119,2025-11-25 18:26:05.897,-1.363000,1.759000,278.670000,-0.001100,0.312200,0.161700,0.294000,0.202000,-10.143000,0.002393,0.001168,-0.007115
1764075365924920397,2025-11-25 18:26:05.921,-1.359000,1.762000,278.660000,-0.000000,0.320800,0.164900,0.310000,0.245000,-10.121000,0.001973,0.002110,-0.009205
1764075365951541804,2025-11-25 18:26:05.949,-1.356000,1.763000,278.648000,-0.000200,0.317800,0.141500,0.326000,0.219000,-10.124000,0.001851,0.001097,-0.009238
1764075365976138397,2025-11-25 18:26:05.972,-1.353000,1.766000,278.636000,0.001600,0.314000,0.143800,0.283000,0.213000,-10.163000,0.002715,0.002040,-0.007799
1764075365999962341,2025-11-25 18:26:05.997,-1.350000,1.768000,278.624000,-0.000000,0.322700,0.155300,0.346000,0.224000,-10.151000,0.000745,0.001018,-0.008874
1764075366027070304,2025-11-25 18:26:06.024,-1.348000,1.770000,278.610000,-0.001100,0.315000,0.158500,0.298000,0.223000,-10.101000,0.000571,0.002267,-0.008393
1764075366091657193,2025-11-25 18:26:06.089,-1.347000,1.773000,278.586000,-0.000200,0.315900,0.139400,0.292000,0.242000,-10.090000,-0.000919,0.001252,-0.009647
1764075366100980008,2025-11-25 18:26:06.098,-1.347000,1.775000,278.574000,-0.000100,0.316900,0.159600,0.321000,0.226000,-10.152000,-0.000251,0.002462,-0.007687
1764075366126481045,2025-11-25 18:26:06.123,-1.348000,1.775000,278.562000,0.000000,0.323700,0.162700,0.307000,0.229000,-10.167000,-0.000634,0.000531,-0.007779
1764075366152722841,2025-11-25 18:26:06.149,-1.350000,1.776000,278.549000,0.000700,0.314000,0.161800,0.301000,0.240000,-10.116000,-0.001269,0.000439,-0.010172
1764075366178006286,2025-11-25 18:26:06.173,-1.353000,1.775000,278.537000,-0.000300,0.310200,0.143700,0.342000,0.221000,-10.098000,-0.002303,0.000917,-0.007435
1764075366197880526,2025-11-25 18:26:06.195,-1.357000,1.776000,278.525000,-0.001100,0.313100,0.162800,0.296000,0.255000,-10.137000,-0.002661,0.000704,-0.008814
1764075366224931378,2025-11-25 18:26:06.222,-1.360000,1.776000,278.513000,-0.002000,0.312200,0.164900,0.337000,0.240000,-10.111000,-0.001974,0.000323,-0.009025
1764075366251139193,2025-11-25 18:26:06.248,-1.364000,1.775000,278.501000,0.000700,0.312100,0.165000,0.286000,0.262000,-10.145000,-0.002466,0.000281,-0.007238
1764075366276850656,2025-11-25 18:26:06.274,-1.369000,1.774000,278.490000,-0.001200,0.312100,0.136200,0.320000,0.251000,-10.108000,-0.001901,-0.000771,-0.008018
1764075366300447841,2025-11-25 18:26:06.298,-1.372000,1.771000,278.477000,-0.000200,0.312100,0.160700,0.289000,0.236000,-10.131000,-0.002369,0.000067,-0.008704
1764075366324015952,2025-11-25 18:26:06.321,-1.377000,1.769000,278.466000,0.000700,0.312100,0.159700,0.322000,0.262000,-10.115000,-0.002463,-0.001560,-0.007854
1764075366350235582,2025-11-25 18:26:06.347,-1.380000,1.768000,278.455000,-0.001100,0.315100,0.164900,0.322000,0.260000,-10.095000,-0.002275,-0.001196,-0.008846
1764075366376537008,2025-11-25 18:26:06.373,-1.384000,1.766000,278.442000,-0.001200,0.312100,0.138400,0.297000,0.238000,-10.161000,-0.002126,-0.000773,-0.008550
1764075366399701267,2025-11-25 18:26:06.397,-1.387000,1.765000,278.430000,-0.000200,0.315000,0.156400,0.337000,0.271000,-10.130000,-0.002030,-0.001963,-0.008133
1764075366425006730,2025-11-25 18:26:06.421,-1.391000,1.763000,278.417000,-0.003000,0.314000,0.139300,0.316000,0.251000,-10.104000,-0.000970,-0.000986,-0.008277
1764075366449121804,2025-11-25 18:26:06.446,-1.392000,1.761000,278.402000,-0.002000,0.313200,0.163800,0.324000,0.245000,-10.132000,0.000031,-0.001035,-0.007326
1764075366474308193,2025-11-25 18:26:06.471,-1.394000,1.760000,278.389000,-0.001900,0.318900,0.163700,0.309000,0.265000,-10.095000,0.000156,-0.000239,-0.009442
1764075366499287897,2025-11-25 18:26:06.496,-1.394000,1.760000,278.377000,-0.002000,0.315100,0.160600,0.314000,0.233000,-10.154000,0.000052,0.000258,-0.008354
1764075366524725082,2025-11-25 18:26:06.522,-1.394000,1.759000,278.365000,-0.001100,0.315000,0.163800,0.313000,0.246000,-10.141000,0.001496,0.000220,-0.008099
1764075366549086897,2025-11-25 18:26:06.546,-1.392000,1.758000,278.354000,-0.001100,0.314000,0.143600,0.287000,0.261000,-10.101000,0.001758,0.000512,-0.009434
1764075366574886508,2025-11-25 18:26:06.572,-1.391000,1.759000,278.342000,-0.002900,0.313200,0.161600,0.324000,0.259000,-10.129000,0.002546,0.000859,-0.008372
1764075366598247730,2025-11-25 18:26:06.595,-1.389000,1.761000,278.330000,-0.003900,0.312200,0.164800,0.310000,0.267000,-10.100000,0.002143,0.002005,-0.007847
1764075366624683785,2025-11-25 18:26:06.621,-1.384000,1.763000,278.319000,-0.002000,0.312200,0.163800,0.323000,0.245000,-10.126000,0.002470,0.001281,-0.009088
1764075366649553656,2025-11-25 18:26:06.647,-1.381000,1.765000,278.307000,-0.002000,0.315100,0.165900,0.307000,0.219000,-10.150000,0.003294,0.000374,-0.007603
1764075366674873415,2025-11-25 18:26:06.672,-1.377000,1.767000,278.294000,-0.003800,0.314100,0.164700,0.320000,0.243000,-10.114000,0.002945,0.001388,-0.008870
1764075366698904711,2025-11-25 18:26:06.696,-1.373000,1.770000,278.282000,-0.001000,0.317900,0.160600,0.313000,0.239000,-10.112000,0.002558,0.002707,-0.007297
1764075366723916822,2025-11-25 18:26:06.721,-1.370000,1.772000,278.271000,-0.001100,0.317900,0.142600,0.289000,0.241000,-10.132000,0.002700,0.002006,-0.006780
1764075366749808082,2025-11-25 18:26:06.747,-1.365000,1.775000,278.258000,-0.002900,0.312200,0.165900,0.353000,0.231000,-10.130000,0.002248,0.002010,-0.009086
1764075366774705489,2025-11-25 18:26:06.771,-1.361000,1.777000,278.247000,-0.002000,0.314100,0.160600,0.318000,0.230000,-10.151000,0.002249,0.001942,-0.007090
1764075366799095582,2025-11-25 18:26:06.796,-1.358000,1.779000,278.236000,-0.002900,0.312200,0.163700,0.322000,0.252000,-10.142000,0.002050,0.001533,-0.007382
1764075366824425119,2025-11-25 18:26:06.821,-1.355000,1.780000,278.223000,-0.002000,0.312200,0.165900,0.282000,0.245000,-10.135000,0.001298,0.002164,-0.008967
1764075366850682433,2025-11-25 18:26:06.848,-1.353000,1.783000,278.212000,-0.002000,0.316000,0.162700,0.307000,0.228000,-10.104000,0.001435,0.000906,-0.006471
1764075366874094841,2025-11-25 18:26:06.871,-1.351000,1.783000,278.199000,-0.001900,0.317900,0.161600,0.320000,0.223000,-10.111000,0.000851,0.000519,-0.007399
1764075366898093137,2025-11-25 18:26:06.895,-1.349000,1.785000,278.188000,-0.001100,0.314000,0.144700,0.312000,0.235000,-10.072000,-0.000618,0.000718,-0.008014
1764075366927636174,2025-11-25 18:26:06.924,-1.349000,1.785000,278.177000,-0.001100,0.316000,0.160600,0.338000,0.217000,-10.113000,0.000080,0.001361,-0.007542
1764075366949440100,2025-11-25 18:26:06.947,-1.349000,1.786000,278.165000,-0.001200,0.313100,0.141500,0.304000,0.264000,-10.093000,-0.001401,-0.000807,-0.007956
1764075366974866359,2025-11-25 18:26:06.972,-1.351000,1.785000,278.153000,-0.004700,0.313200,0.163600,0.337000,0.226000,-10.131000,-0.001082,0.000516,-0.008556
1764075366998947433,2025-11-25 18:26:06.996,-1.352000,1.783000,278.139000,-0.003000,0.310300,0.161600,0.293000,0.234000,-10.129000,0.000172,-0.001076,-0.007457
1764075367027642433,2025-11-25 18:26:07.025,-1.352000,1.781000,278.127000,-0.002000,0.314100,0.160600,0.318000,0.252000,-10.141000,-0.000562,-0.001773,-0.008763
1764075367090028155,2025-11-25 18:26:07.088,-1.359000,1.778000,278.104000,-0.004600,0.318000,0.162500,0.307000,0.252000,-10.143000,-0.001701,0.000089,-0.008070
1764075367099136600,2025-11-25 18:26:07.097,-1.363000,1.776000,278.092000,-0.003000,0.311200,0.158400,0.319000,0.235000,-10.087000,-0.002094,0.000227,-0.009867
1764075367127887063,2025-11-25 18:26:07.124,-1.365000,1.775000,278.080000,-0.002100,0.310300,0.159600,0.307000,0.235000,-10.148000,-0.003237,-0.002037,-0.008003
1764075367149341489,2025-11-25 18:26:07.146,-1.369000,1.775000,278.068000,-0.003000,0.311200,0.161600,0.323000,0.250000,-10.128000,-0.001992,0.000084,-0.009579
1764075367176352711,2025-11-25 18:26:07.173,-1.372000,1.773000,278.057000,-0.003000,0.312200,0.160600,0.306000,0.233000,-10.108000,-0.001486,-0.000689,-0.007506
1764075367198549304,2025-11-25 18:26:07.196,-1.376000,1.773000,278.045000,-0.003800,0.314100,0.161600,0.304000,0.259000,-10.114000,-0.001892,0.000731,-0.007008
1764075367222843415,2025-11-25 18:26:07.220,-1.382000,1.772000,278.032000,-0.005600,0.317000,0.157200,0.314000,0.240000,-10.125000,-0.003483,0.000513,-0.008082
1764075367249528822,2025-11-25 18:26:07.247,-1.383000,1.773000,278.021000,-0.002800,0.319900,0.158400,0.300000,0.248000,-10.143000,-0.000819,0.000679,-0.007569
1764075367274214044,2025-11-25 18:26:07.271,-1.386000,1.772000,278.008000,-0.003900,0.313100,0.143500,0.326000,0.257000,-10.125000,-0.000912,0.000593,-0.008911
1764075367298372489,2025-11-25 18:26:07.295,-1.389000,1.772000,277.996000,-0.001100,0.315000,0.162800,0.278000,0.264000,-10.109000,-0.001274,-0.000450,-0.008708
1764075367325982952,2025-11-25 18:26:07.323,-1.391000,1.773000,277.984000,-0.003800,0.315100,0.163700,0.307000,0.251000,-10.147000,-0.000832,0.001366,-0.007204
1764075367349715303,2025-11-25 18:26:07.347,-1.392000,1.772000,277.972000,-0.003900,0.313100,0.140300,0.294000,0.257000,-10.138000,0.000546,0.000581,-0.008765
1764075367374149692,2025-11-25 18:26:07.371,-1.392000,1.773000,277.959000,-0.001100,0.315000,0.161700,0.317000,0.218000,-10.095000,-0.000339,0.000324,-0.008077
1764075367397757192,2025-11-25 18:26:07.395,-1.392000,1.774000,277.948000,-0.003900,0.309300,0.159500,0.305000,0.258000,-10.124000,0.000584,0.001688,-0.006979
1764075367425963970,2025-11-25 18:26:07.423,-1.390000,1.776000,277.936000,-0.002900,0.317900,0.141400,0.306000,0.267000,-10.116000,0.001330,0.001064,-0.008834
1764075367449981174,2025-11-25 18:26:07.447,-1.389000,1.777000,277.925000,-0.001000,0.317000,0.161700,0.344000,0.238000,-10.127000,0.001025,0.000371,-0.007676
1764075367475761803,2025-11-25 18:26:07.472,-1.387000,1.778000,277.912000,-0.005600,0.314200,0.161500,0.282000,0.239000,-10.153000,0.001420,0.000632,-0.007807
1764075367499061137,2025-11-25 18:26:07.496,-1.383000,1.778000,277.899000,-0.003800,0.313200,0.158400,0.348000,0.237000,-10.147000,0.001704,-0.000084,-0.008135
1764075367523844563,2025-11-25 18:26:07.521,-1.380000,1.779000,277.886000,-0.002900,0.315100,0.157300,0.311000,0.210000,-10.119000,0.002841,0.001639,-0.007299
1764075367549702118,2025-11-25 18:26:07.546,-1.377000,1.780000,277.875000,-0.003900,0.315000,0.137100,0.301000,0.264000,-10.103000,0.003260,0.000623,-0.007392
1764075367575072396,2025-11-25 18:26:07.572,-1.374000,1.780000,277.864000,-0.003900,0.312200,0.163700,0.314000,0.241000,-10.137000,0.002108,0.000476,-0.008540
1764075367598760118,2025-11-25 18:26:07.596,-1.370000,1.781000,277.853000,-0.004800,0.316000,0.137100,0.303000,0.233000,-10.158000,0.002874,0.000052,-0.007369
1764075367623918563,2025-11-25 18:26:07.621,-1.366000,1.780000,277.839000,-0.001000,0.317000,0.162700,0.331000,0.248000,-10.122000,0.002576,0.000384,-0.009565
1764075367649228692,2025-11-25 18:26:07.647,-1.364000,1.780000,277.829000,-0.004700,0.314200,0.163600,0.315000,0.238000,-10.105000,0.001423,-0.000417,-0.008343
1764075367674524359,2025-11-25 18:26:07.672,-1.360000,1.779000,277.818000,-0.004700,0.319800,0.142300,0.326000,0.223000,-10.115000,0.001871,-0.001237,-0.007194
1764075367698874674,2025-11-25 18:26:07.696,-1.358000,1.776000,277.805000,-0.006600,0.312300,0.163600,0.297000,0.243000,-10.158000,0.001121,-0.000749,-0.008795
1764075367723514896,2025-11-25 18:26:07.721,-1.357000,1.773000,277.793000,-0.004700,0.316100,0.163600,0.327000,0.215000,-10.129000,0.000462,-0.001888,-0.007348
1764075367749310692,2025-11-25 18:26:07.747,-1.355000,1.771000,277.781000,-0.003900,0.312200,0.145600,0.317000,0.252000,-10.119000,0.000120,-0.001704,-0.007987
1764075367773961025,2025-11-25 18:26:07.771,-1.354000,1.770000,277.771000,-0.004800,0.312200,0.166800,0.297000,0.220000,-10.130000,-0.000650,-0.002188,-0.007889
1764075367798784544,2025-11-25 18:26:07.796,-1.355000,1.766000,277.760000,-0.006500,0.314200,0.163500,0.338000,0.220000,-10.112000,0.000107,-0.002154,-0.007564
1764075367824308748,2025-11-25 18:26:07.822,-1.355000,1.764000,277.748000,-0.005600,0.317100,0.164600,0.290000,0.259000,-10.104000,-0.000139,-0.001010,-0.007670
1764075367848763711,2025-11-25 18:26:07.846,-1.357000,1.761000,277.737000,-0.003900,0.311300,0.161600,0.328000,0.198000,-10.086000,-0.000241,-0.002085,-0.007744
1764075367874423988,2025-11-25 18:26:07.872,-1.357000,1.759000,277.726000,-0.003800,0.316000,0.144600,0.299000,0.212000,-10.140000,-0.000703,-0.000779,-0.007508
1764075367899016988,2025-11-25 18:26:07.896,-1.359000,1.757000,277.715000,-0.003000,0.311200,0.160600,0.341000,0.249000,-10.127000,-0.000828,-0.002109,-0.008580
1764075367926413896,2025-11-25 18:26:07.923,-1.363000,1.754000,277.702000,-0.003700,0.320800,0.161500,0.310000,0.242000,-10.130000,-0.001722,-0.001668,-0.006587
1764075367951994081,2025-11-25 18:26:07.949,-1.365000,1.753000,277.689000,-0.003800,0.317000,0.159400,0.308000,0.258000,-10.085000,-0.001184,-0.000647,-0.008154
1764075367973977914,2025-11-25 18:26:07.971,-1.368000,1.750000,277.676000,-0.005600,0.313200,0.164700,0.288000,0.243000,-10.108000,-0.000998,-0.000638,-0.008411
1764075367999018710,2025-11-25 18:26:07.996,-1.371000,1.748000,277.666000,-0.005700,0.313200,0.159300,0.272000,0.245000,-10.107000,-0.000679,-0.000605,-0.006884
1764075368026554785,2025-11-25 18:26:08.023,-1.375000,1.745000,277.654000,-0.003900,0.311200,0.143500,0.323000,0.262000,-10.103000,-0.002162,-0.002259,-0.008921
1764075368092091803,2025-11-25 18:26:08.089,-1.380000,1.745000,277.628000,-0.004700,0.314100,0.160400,0.302000,0.239000,-10.094000,-0.001406,-0.000013,-0.008698
1764075368101327766,2025-11-25 18:26:08.099,-1.381000,1.744000,277.615000,-0.004600,0.318000,0.161500,0.295000,0.250000,-10.088000,-0.001018,0.000367,-0.008874
1764075368127189636,2025-11-25 18:26:08.123,-1.382000,1.744000,277.603000,-0.005800,0.310300,0.140200,0.306000,0.247000,-10.121000,-0.000696,0.000129,-0.009313
1764075368149451229,2025-11-25 18:26:08.146,-1.382000,1.745000,277.589000,-0.007500,0.313200,0.139100,0.310000,0.254000,-10.115000,0.000775,0.001597,-0.008379
1764075368178473877,2025-11-25 18:26:08.174,-1.382000,1.748000,277.576000,-0.006500,0.317100,0.161400,0.272000,0.264000,-10.095000,0.000556,0.001592,-0.009408
1764075368198097951,2025-11-25 18:26:08.195,-1.381000,1.750000,277.562000,-0.002000,0.316000,0.162700,0.329000,0.236000,-10.142000,0.001385,0.002444,-0.008050
1764075368223705692,2025-11-25 18:26:08.220,-1.379000,1.754000,277.549000,-0.004800,0.312200,0.161500,0.299000,0.260000,-10.110000,0.002294,0.002508,-0.007232
1764075368251618081,2025-11-25 18:26:08.248,-1.377000,1.757000,277.536000,-0.008300,0.315200,0.161300,0.333000,0.227000,-10.125000,0.000696,0.002580,-0.008186
1764075368275699136,2025-11-25 18:26:08.272,-1.376000,1.760000,277.523000,-0.008200,0.321900,0.160200,0.318000,0.232000,-10.164000,0.001777,0.002579,-0.006810
1764075368299652840,2025-11-25 18:26:08.297,-1.373000,1.765000,277.510000,-0.006500,0.315100,0.161400,0.277000,0.265000,-10.103000,0.001853,0.004283,-0.008332
1764075368323350710,2025-11-25 18:26:08.321,-1.371000,1.768000,277.498000,-0.004800,0.313200,0.158300,0.334000,0.239000,-10.148000,0.001884,0.002797,-0.008126
1764075368349341155,2025-11-25 18:26:08.346,-1.367000,1.774000,277.488000,-0.005500,0.318000,0.162500,0.308000,0.237000,-10.113000,0.002004,0.002791,-0.006836
1764075368376437044,2025-11-25 18:26:08.374,-1.365000,1.777000,277.476000,-0.006500,0.317000,0.157100,0.330000,0.242000,-10.132000,0.000692,0.002829,-0.008523
1764075368400037969,2025-11-25 18:26:08.397,-1.362000,1.783000,277.465000,-0.007400,0.315200,0.164500,0.327000,0.244000,-10.143000,0.001483,0.004513,-0.007079
1764075368422650395,2025-11-25 18:26:08.420,-1.362000,1.788000,277.452000,-0.007400,0.317100,0.158200,0.313000,0.256000,-10.106000,0.000532,0.002546,-0.007562
1764075368449131507,2025-11-25 18:26:08.446,-1.361000,1.792000,277.439000,-0.005600,0.314200,0.163600,0.286000,0.235000,-10.116000,-0.000108,0.003549,-0.009281
1764075368474347840,2025-11-25 18:26:08.471,-1.361000,1.795000,277.427000,-0.006600,0.311300,0.164600,0.332000,0.231000,-10.123000,0.000911,0.001908,-0.007237
1764075368498578636,2025-11-25 18:26:08.496,-1.360000,1.797000,277.415000,-0.007400,0.315200,0.164600,0.319000,0.244000,-10.139000,0.000912,0.001915,-0.008644
1764075368525150229,2025-11-25 18:26:08.521,-1.360000,1.801000,277.404000,-0.006600,0.313200,0.139100,0.320000,0.199000,-10.124000,0.001487,0.001922,-0.007946
1764075368547793192,2025-11-25 18:26:08.545,-1.361000,1.802000,277.393000,-0.006600,0.315100,0.138000,0.327000,0.226000,-10.114000,-0.001555,0.001667,-0.006557
1764075368574596340,2025-11-25 18:26:08.572,-1.362000,1.804000,277.381000,-0.008300,0.319000,0.159200,0.307000,0.253000,-10.072000,-0.001627,0.000439,-0.008684
1764075368598588895,2025-11-25 18:26:08.596,-1.365000,1.804000,277.367000,-0.005500,0.319900,0.159300,0.328000,0.222000,-10.129000,-0.001536,0.000269,-0.007562
1764075368624200673,2025-11-25 18:26:08.621,-1.367000,1.803000,277.355000,-0.007400,0.315100,0.156100,0.313000,0.236000,-10.131000,-0.001731,-0.000613,-0.007788
1764075368650450247,2025-11-25 18:26:08.647,-1.369000,1.801000,277.343000,-0.006500,0.317000,0.142300,0.313000,0.243000,-10.083000,-0.002111,-0.002114,-0.009415
1764075368675979747,2025-11-25 18:26:08.673,-1.372000,1.800000,277.332000,-0.007400,0.317100,0.162400,0.313000,0.237000,-10.126000,-0.001668,-0.001728,-0.007507
1764075368700277969,2025-11-25 18:26:08.697,-1.374000,1.798000,277.321000,-0.008200,0.320900,0.157000,0.289000,0.253000,-10.087000,-0.000186,-0.001620,-0.007440
1764075368723304747,2025-11-25 18:26:08.720,-1.377000,1.793000,277.309000,-0.007500,0.312300,0.160300,0.343000,0.225000,-10.117000,-0.000876,-0.002076,-0.009276
1764075368748704543,2025-11-25 18:26:08.746,-1.379000,1.790000,277.297000,-0.007500,0.314100,0.140100,0.307000,0.247000,-10.146000,-0.000305,-0.001936,-0.007201
1764075368775549006,2025-11-25 18:26:08.773,-1.380000,1.786000,277.285000,-0.006500,0.316100,0.145500,0.312000,0.255000,-10.150000,-0.000948,-0.002682,-0.009022
1764075368799065043,2025-11-25 18:26:08.796,-1.382000,1.781000,277.273000,-0.008300,0.318100,0.160200,0.287000,0.247000,-10.104000,-0.000297,-0.002950,-0.008522
1764075368824201099,2025-11-25 18:26:08.821,-1.383000,1.776000,277.263000,-0.007500,0.315100,0.142300,0.321000,0.232000,-10.115000,0.000526,-0.002581,-0.007722
1764075368849378673,2025-11-25 18:26:08.846,-1.384000,1.770000,277.250000,-0.005600,0.315100,0.158300,0.307000,0.264000,-10.115000,-0.000917,-0.002964,-0.008022
1764075368876152969,2025-11-25 18:26:08.873,-1.384000,1.768000,277.239000,-0.007600,0.309400,0.162500,0.294000,0.243000,-10.159000,0.000635,-0.001366,-0.008105
1764075368899062321,2025-11-25 18:26:08.896,-1.383000,1.764000,277.226000,-0.005600,0.315100,0.159300,0.310000,0.232000,-10.116000,0.001013,-0.001322,-0.008240
1764075368924296025,2025-11-25 18:26:08.921,-1.381000,1.759000,277.213000,-0.006700,0.309400,0.160400,0.298000,0.239000,-10.100000,0.000549,-0.001331,-0.008988
1764075368951295673,2025-11-25 18:26:08.948,-1.379000,1.756000,277.202000,-0.008300,0.315200,0.164500,0.322000,0.218000,-10.154000,0.001880,-0.002040,-0.008148
1764075368976820728,2025-11-25 18:26:08.973,-1.377000,1.754000,277.190000,-0.008300,0.317100,0.161300,0.282000,0.276000,-10.112000,0.001572,-0.000891,-0.009289
1764075368997819617,2025-11-25 18:26:08.995,-1.374000,1.752000,277.178000,-0.006700,0.309300,0.145500,0.303000,0.250000,-10.124000,0.001938,-0.001363,-0.007834
1764075369024546506,2025-11-25 18:26:09.022,-1.371000,1.750000,277.167000,-0.008500,0.312200,0.144400,0.305000,0.254000,-10.154000,0.001763,-0.001089,-0.007746
1764075369091397154,2025-11-25 18:26:09.089,-1.367000,1.747000,277.144000,-0.008200,0.320900,0.162300,0.304000,0.235000,-10.105000,0.001572,-0.000764,-0.007612
1764075369100569451,2025-11-25 18:26:09.098,-1.364000,1.750000,277.133000,-0.011100,0.314300,0.162200,0.286000,0.238000,-10.117000,0.001566,0.000843,-0.008349
1764075369124667691,2025-11-25 18:26:09.121,-1.361000,1.750000,277.121000,-0.008400,0.313300,0.160300,0.308000,0.226000,-10.096000,0.002370,0.002346,-0.008814
1764075369147765599,2025-11-25 18:26:09.145,-1.360000,1.750000,277.109000,-0.006400,0.319000,0.164600,0.315000,0.231000,-10.104000,0.000614,0.000399,-0.007176
1764075369175931136,2025-11-25 18:26:09.172,-1.358000,1.751000,277.096000,-0.007400,0.316100,0.160300,0.312000,0.234000,-10.110000,0.000471,0.001106,-0.006717
1764075369199072876,2025-11-25 18:26:09.196,-1.357000,1.752000,277.085000,-0.008400,0.314200,0.161300,0.304000,0.234000,-10.064000,0.001023,0.001259,-0.008099
1764075369223793617,2025-11-25 18:26:09.221,-1.356000,1.753000,277.073000,-0.007500,0.313200,0.161400,0.300000,0.247000,-10.162000,0.000491,0.000202,-0.007169
1764075369249678099,2025-11-25 18:26:09.247,-1.356000,1.753000,277.062000,-0.008400,0.316100,0.142200,0.320000,0.249000,-10.083000,0.000364,0.000902,-0.010031
1764075369272928710,2025-11-25 18:26:09.270,-1.356000,1.755000,277.050000,-0.008500,0.312200,0.140100,0.307000,0.248000,-10.127000,0.001371,0.000651,-0.008817
1764075369299698654,2025-11-25 18:26:09.296,-1.356000,1.757000,277.037000,-0.009300,0.314200,0.154900,0.349000,0.215000,-10.119000,-0.000162,0.001376,-0.007778
1764075369322842358,2025-11-25 18:26:09.320,-1.356000,1.759000,277.024000,-0.009300,0.312300,0.162400,0.279000,0.246000,-10.125000,0.000289,0.001451,-0.008028
1764075369348715562,2025-11-25 18:26:09.345,-1.357000,1.760000,277.012000,-0.009200,0.315200,0.162300,0.336000,0.224000,-10.094000,0.000611,0.000530,-0.008593
1764075369374916747,2025-11-25 18:26:09.372,-1.359000,1.761000,276.999000,-0.009300,0.313200,0.141100,0.290000,0.222000,-10.144000,-0.000746,0.001437,-0.008494
1764075369399561228,2025-11-25 18:26:09.397,-1.359000,1.763000,276.987000,-0.009200,0.316200,0.160200,0.310000,0.232000,-10.125000,-0.000788,0.000364,-0.008171
1764075369425104932,2025-11-25 18:26:09.422,-1.361000,1.763000,276.974000,-0.008300,0.315200,0.161300,0.320000,0.222000,-10.153000,-0.000620,0.000306,-0.008139
1764075369449968061,2025-11-25 18:26:09.447,-1.361000,1.766000,276.963000,-0.007500,0.314100,0.137000,0.298000,0.249000,-10.137000,0.000687,0.002243,-0.008551
1764075369476194284,2025-11-25 18:26:09.473,-1.363000,1.767000,276.951000,-0.009300,0.313300,0.159200,0.324000,0.234000,-10.124000,-0.000866,0.001657,-0.008021
1764075369499251617,2025-11-25 18:26:09.497,-1.365000,1.768000,276.939000,-0.009300,0.314200,0.161300,0.282000,0.240000,-10.137000,-0.000885,0.001881,-0.007626
1764075369523282969,2025-11-25 18:26:09.520,-1.366000,1.769000,276.926000,-0.009300,0.312300,0.160200,0.340000,0.254000,-10.139000,-0.001125,0.000191,-0.009088
1764075369548354321,2025-11-25 18:26:09.545,-1.367000,1.771000,276.912000,-0.011100,0.314200,0.144200,0.289000,0.247000,-10.123000,-0.001727,0.001205,-0.008565
1764075369575468598,2025-11-25 18:26:09.572,-1.367000,1.773000,276.900000,-0.009200,0.315200,0.163400,0.315000,0.259000,-10.120000,-0.000238,0.001926,-0.007890
1764075369598359043,2025-11-25 18:26:09.596,-1.368000,1.774000,276.887000,-0.011000,0.315300,0.166500,0.334000,0.250000,-10.095000,0.000768,0.001490,-0.009350
1764075369624048765,2025-11-25 18:26:09.621,-1.368000,1.778000,276.876000,-0.010200,0.313200,0.145300,0.306000,0.233000,-10.157000,0.000861,0.002663,-0.007651
1764075369649183543,2025-11-25 18:26:09.646,-1.368000,1.779000,276.863000,-0.009300,0.312300,0.162400,0.312000,0.260000,-10.118000,0.000222,0.002055,-0.008017
1764075369675959209,2025-11-25 18:26:09.671,-1.367000,1.782000,276.852000,-0.009400,0.310300,0.135800,0.278000,0.228000,-10.126000,0.000257,0.002702,-0.007970
1764075369697604858,2025-11-25 18:26:09.695,-1.367000,1.783000,276.840000,-0.010200,0.313300,0.162300,0.319000,0.240000,-10.115000,0.001005,0.001724,-0.006575
1764075369722618302,2025-11-25 18:26:09.720,-1.366000,1.785000,276.828000,-0.010200,0.314200,0.158000,0.301000,0.257000,-10.133000,0.001149,0.001351,-0.009128
1764075369750003228,2025-11-25 18:26:09.747,-1.364000,1.788000,276.818000,-0.010100,0.316200,0.158000,0.334000,0.231000,-10.118000,0.000606,0.001559,-0.008249
1764075369775221506,2025-11-25 18:26:09.772,-1.365000,1.788000,276.807000,-0.012000,0.315200,0.157900,0.307000,0.226000,-10.106000,-0.000190,0.001497,-0.006001
1764075369798907598,2025-11-25 18:26:09.796,-1.364000,1.790000,276.794000,-0.010200,0.316200,0.154800,0.322000,0.270000,-10.106000,0.000381,0.002027,-0.008872
1764075369822666469,2025-11-25 18:26:09.819,-1.364000,1.790000,276.783000,-0.009000,0.324800,0.161200,0.328000,0.222000,-10.174000,0.000667,0.000703,-0.007131
1764075369849109172,2025-11-25 18:26:09.846,-1.364000,1.791000,276.772000,-0.009300,0.313300,0.161300,0.304000,0.244000,-10.131000,-0.000262,0.000505,-0.008132
1764075369876857117,2025-11-25 18:26:09.873,-1.363000,1.791000,276.761000,-0.010200,0.314200,0.143200,0.339000,0.251000,-10.136000,0.000072,0.000036,-0.009315
1764075369897398080,2025-11-25 18:26:09.894,-1.363000,1.790000,276.749000,-0.011100,0.314300,0.161200,0.300000,0.228000,-10.109000,-0.000268,-0.000716,-0.007727
1764075369924950061,2025-11-25 18:26:09.921,-1.363000,1.791000,276.738000,-0.010200,0.313300,0.165500,0.328000,0.248000,-10.116000,-0.000137,-0.000762,-0.007401
1764075369950886098,2025-11-25 18:26:09.948,-1.364000,1.789000,276.727000,-0.011100,0.314300,0.166500,0.299000,0.240000,-10.138000,-0.000428,-0.000851,-0.007065
1764075369976043172,2025-11-25 18:26:09.972,-1.365000,1.787000,276.716000,-0.011100,0.315200,0.163300,0.308000,0.226000,-10.138000,0.000372,-0.001992,-0.006182
1764075369998334191,2025-11-25 18:26:09.995,-1.368000,1.781000,276.703000,-0.010100,0.317100,0.162300,0.314000,0.248000,-10.124000,-0.001263,-0.002861,-0.007408
1764075370026736950,2025-11-25 18:26:10.023,-1.368000,1.779000,276.689000,-0.011100,0.313300,0.161200,0.301000,0.224000,-10.097000,-0.000544,-0.002410,-0.006486
1764075370091471357,2025-11-25 18:26:10.089,-1.371000,1.772000,276.666000,-0.011900,0.320000,0.144100,0.296000,0.274000,-10.070000,-0.001220,-0.002603,-0.008951
1764075370100730654,2025-11-25 18:26:10.098,-1.371000,1.768000,276.655000,-0.011200,0.312300,0.146300,0.340000,0.217000,-10.139000,0.001224,-0.003258,-0.006216
1764075370126562783,2025-11-25 18:26:10.123,-1.372000,1.762000,276.643000,-0.012000,0.313300,0.165400,0.304000,0.263000,-10.094000,0.000415,-0.003100,-0.007533
1764075370150102598,2025-11-25 18:26:10.147,-1.372000,1.758000,276.631000,-0.013000,0.311400,0.163200,0.327000,0.237000,-10.122000,0.001234,-0.003261,-0.008491
1764075370174797987,2025-11-25 18:26:10.172,-1.373000,1.753000,276.619000,-0.012000,0.312400,0.160100,0.312000,0.233000,-10.147000,0.000163,-0.003577,-0.008034
1764075370199397320,2025-11-25 18:26:10.197,-1.371000,1.748000,276.607000,-0.010300,0.310400,0.143200,0.288000,0.263000,-10.115000,0.000366,-0.003265,-0.008731
1764075370224030931,2025-11-25 18:26:10.221,-1.371000,1.742000,276.594000,-0.010200,0.313300,0.168700,0.332000,0.237000,-10.116000,0.000935,-0.002931,-0.009728
1764075370250149524,2025-11-25 18:26:10.247,-1.370000,1.737000,276.582000,-0.011100,0.315200,0.163300,0.288000,0.234000,-10.102000,0.000845,-0.002735,-0.007927
1764075370275139839,2025-11-25 18:26:10.271,-1.368000,1.734000,276.568000,-0.011000,0.318100,0.159000,0.336000,0.268000,-10.115000,0.000948,-0.003005,-0.008857
1764075370299138246,2025-11-25 18:26:10.296,-1.367000,1.730000,276.556000,-0.009200,0.319000,0.157000,0.272000,0.257000,-10.111000,0.001243,-0.000644,-0.007877
1764075370325268320,2025-11-25 18:26:10.322,-1.366000,1.727000,276.543000,-0.013000,0.311400,0.163200,0.291000,0.248000,-10.105000,0.001292,-0.001230,-0.008392
1764075370351733116,2025-11-25 18:26:10.348,-1.364000,1.723000,276.529000,-0.011100,0.316100,0.144200,0.314000,0.251000,-10.115000,0.002154,0.000623,-0.009231
1764075370380134672,2025-11-25 18:26:10.377,-1.362000,1.723000,276.516000,-0.011100,0.314300,0.166500,0.289000,0.249000,-10.153000,0.002299,0.001062,-0.007835
1764075370397422468,2025-11-25 18:26:10.395,-1.361000,1.722000,276.503000,-0.011100,0.312400,0.162300,0.291000,0.238000,-10.135000,0.000492,0.000003,-0.009102
1764075370425529042,2025-11-25 18:26:10.423,-1.359000,1.723000,276.491000,-0.012900,0.315300,0.160000,0.279000,0.242000,-10.128000,0.002358,0.001589,-0.009537
1764075370450277339,2025-11-25 18:26:10.447,-1.358000,1.724000,276.479000,-0.009300,0.310400,0.163400,0.318000,0.217000,-10.160000,0.001405,0.002193,-0.007083
1764075370477372431,2025-11-25 18:26:10.475,-1.357000,1.729000,276.465000,-0.012000,0.311400,0.164400,0.275000,0.272000,-10.097000,-0.000875,0.003592,-0.009117
1764075370499344265,2025-11-25 18:26:10.496,-1.357000,1.733000,276.453000,-0.011100,0.315200,0.162200,0.321000,0.244000,-10.111000,0.000448,0.004124,-0.006516
1764075370524030561,2025-11-25 18:26:10.521,-1.356000,1.739000,276.442000,-0.011200,0.312300,0.140000,0.291000,0.232000,-10.127000,0.001349,0.004854,-0.006843
1764075370551277098,2025-11-25 18:26:10.547,-1.356000,1.746000,276.431000,-0.011100,0.312400,0.160100,0.307000,0.238000,-10.132000,-0.000896,0.005410,-0.008953
1764075370576093320,2025-11-25 18:26:10.573,-1.357000,1.753000,276.420000,-0.012000,0.314300,0.159000,0.302000,0.226000,-10.174000,-0.000663,0.005673,-0.006212
1764075370598925468,2025-11-25 18:26:10.596,-1.357000,1.761000,276.408000,-0.012800,0.318100,0.157900,0.284000,0.259000,-10.102000,0.000195,0.005582,-0.007993
1764075370623792468,2025-11-25 18:26:10.621,-1.357000,1.769000,276.397000,-0.011900,0.317200,0.156900,0.330000,0.225000,-10.098000,-0.000058,0.005086,-0.008058
1764075370650021487,2025-11-25 18:26:10.647,-1.359000,1.777000,276.385000,-0.013600,0.322000,0.161000,0.307000,0.250000,-10.112000,-0.000799,0.007028,-0.007333
1764075370675192005,2025-11-25 18:26:10.672,-1.361000,1.785000,276.373000,-0.014700,0.315300,0.157800,0.323000,0.265000,-10.105000,-0.000590,0.005300,-0.008150
1764075370700942450,2025-11-25 18:26:10.698,-1.363000,1.791000,276.362000,-0.013800,0.312400,0.161100,0.324000,0.233000,-10.118000,-0.000720,0.005072,-0.007669
1764075370725371357,2025-11-25 18:26:10.723,-1.365000,1.799000,276.350000,-0.012000,0.314300,0.161100,0.320000,0.233000,-10.097000,-0.000352,0.004896,-0.007331
1764075370750244950,2025-11-25 18:26:10.747,-1.366000,1.804000,276.338000,-0.012900,0.312400,0.162200,0.340000,0.250000,-10.111000,-0.000273,0.002902,-0.009163
1764075370776694690,2025-11-25 18:26:10.774,-1.367000,1.809000,276.327000,-0.011900,0.320100,0.164300,0.324000,0.264000,-10.128000,0.000169,0.002883,-0.008023
1764075370799932894,2025-11-25 18:26:10.797,-1.370000,1.812000,276.317000,-0.014800,0.311400,0.156800,0.319000,0.233000,-10.137000,-0.000630,0.000865,-0.008177
1764075370824458061,2025-11-25 18:26:10.821,-1.370000,1.813000,276.306000,-0.013900,0.312400,0.160000,0.308000,0.223000,-10.134000,-0.001032,-0.000251,-0.007287
1764075370850282375,2025-11-25 18:26:10.847,-1.371000,1.814000,276.293000,-0.012000,0.313300,0.163300,0.350000,0.233000,-10.126000,0.000857,-0.000790,-0.006581
1764075370875189875,2025-11-25 18:26:10.872,-1.371000,1.812000,276.280000,-0.012000,0.314300,0.163300,0.313000,0.272000,-10.139000,-0.000578,-0.002559,-0.008397
1764075370899114135,2025-11-25 18:26:10.896,-1.371000,1.812000,276.267000,-0.013800,0.315300,0.160000,0.361000,0.232000,-10.108000,0.000149,-0.001465,-0.009531
1764075370926918209,2025-11-25 18:26:10.923,-1.372000,1.807000,276.254000,-0.012000,0.314300,0.164300,0.338000,0.245000,-10.072000,0.000861,-0.003940,-0.007824
1764075370951797061,2025-11-25 18:26:10.949,-1.371000,1.801000,276.241000,-0.014700,0.316300,0.158900,0.318000,0.247000,-10.117000,0.000438,-0.004053,-0.009728
1764075370975825005,2025-11-25 18:26:10.973,-1.370000,1.793000,276.229000,-0.013800,0.316300,0.164200,0.348000,0.213000,-10.143000,0.002181,-0.004639,-0.007830
1764075370999662524,2025-11-25 18:26:10.997,-1.370000,1.786000,276.216000,-0.013800,0.314300,0.161100,0.283000,0.233000,-10.096000,0.000700,-0.006102,-0.008780
1764075371026560838,2025-11-25 18:26:11.023,-1.368000,1.777000,276.203000,-0.012900,0.313400,0.164300,0.332000,0.241000,-10.125000,0.000801,-0.005221,-0.009768
1764075371090725690,2025-11-25 18:26:11.088,-1.365000,1.759000,276.177000,-0.015600,0.313400,0.165200,0.309000,0.249000,-10.118000,0.002344,-0.006328,-0.008703
1764075371099853042,2025-11-25 18:26:11.097,-1.363000,1.750000,276.166000,-0.015700,0.311500,0.165200,0.309000,0.244000,-10.154000,0.000154,-0.006182,-0.008724
1764075371127473190,2025-11-25 18:26:11.124,-1.361000,1.742000,276.153000,-0.012900,0.314300,0.162200,0.267000,0.218000,-10.146000,0.001816,-0.004297,-0.008657
1764075371149249746,2025-11-25 18:26:11.146,-1.360000,1.734000,276.140000,-0.013900,0.311400,0.162100,0.319000,0.246000,-10.123000,0.000580,-0.004672,-0.008729
1764075371175878394,2025-11-25 18:26:11.172,-1.360000,1.727000,276.130000,-0.013800,0.312400,0.162100,0.265000,0.244000,-10.145000,0.001323,-0.004725,-0.007824
1764075371199510005,2025-11-25 18:26:11.197,-1.360000,1.721000,276.119000,-0.014700,0.313400,0.167400,0.305000,0.243000,-10.122000,0.000017,-0.003694,-0.007616
1764075371223842801,2025-11-25 18:26:11.221,-1.359000,1.717000,276.108000,-0.013900,0.311500,0.164300,0.289000,0.234000,-10.106000,0.001390,-0.000583,-0.008425
1764075371250993283,2025-11-25 18:26:11.248,-1.359000,1.715000,276.096000,-0.014600,0.318200,0.164200,0.296000,0.232000,-10.148000,0.000148,-0.000338,-0.007105
1764075371274284301,2025-11-25 18:26:11.271,-1.359000,1.713000,276.085000,-0.011200,0.307600,0.162300,0.288000,0.241000,-10.119000,0.000173,-0.000303,-0.007459
1764075371299549005,2025-11-25 18:26:11.296,-1.359000,1.714000,276.076000,-0.014700,0.317200,0.157800,0.278000,0.233000,-10.122000,-0.000326,0.000388,-0.007731
1764075371324333505,2025-11-25 18:26:11.321,-1.360000,1.715000,276.065000,-0.014700,0.315300,0.161000,0.322000,0.234000,-10.176000,-0.000592,0.002089,-0.005837
1764075371349184727,2025-11-25 18:26:11.346,-1.361000,1.718000,276.053000,-0.012800,0.316200,0.166400,0.270000,0.260000,-10.151000,-0.000072,0.002560,-0.007655
1764075371376659560,2025-11-25 18:26:11.373,-1.362000,1.721000,276.043000,-0.015600,0.317200,0.160900,0.318000,0.218000,-10.110000,-0.000492,0.003570,-0.007453
1764075371400838634,2025-11-25 18:26:11.398,-1.364000,1.725000,276.032000,-0.014700,0.316300,0.162000,0.302000,0.260000,-10.131000,-0.001072,0.004161,-0.006813
1764075371425018301,2025-11-25 18:26:11.421,-1.365000,1.732000,276.019000,-0.013000,0.310500,0.161100,0.298000,0.253000,-10.163000,-0.000297,0.005038,-0.007660
1764075371449565579,2025-11-25 18:26:11.446,-1.366000,1.739000,276.010000,-0.013800,0.313400,0.161100,0.309000,0.199000,-10.107000,-0.000273,0.004616,-0.007301
1764075371479158097,2025-11-25 18:26:11.476,-1.366000,1.747000,275.998000,-0.017500,0.312500,0.164100,0.274000,0.251000,-10.126000,0.000322,0.006227,-0.007564
1764075371498311023,2025-11-25 18:26:11.495,-1.367000,1.754000,275.985000,-0.012900,0.313400,0.165300,0.326000,0.239000,-10.122000,0.000339,0.005838,-0.008622
1764075371524394301,2025-11-25 18:26:11.521,-1.368000,1.762000,275.974000,-0.011900,0.317200,0.159000,0.278000,0.243000,-10.146000,0.000132,0.005779,-0.007177
1764075371549651153,2025-11-25 18:26:11.546,-1.369000,1.770000,275.965000,-0.016600,0.313400,0.160900,0.328000,0.233000,-10.151000,0.000031,0.004546,-0.007412
1764075371575360708,2025-11-25 18:26:11.572,-1.369000,1.777000,275.952000,-0.014700,0.313400,0.163100,0.314000,0.231000,-10.111000,0.000209,0.005135,-0.008595
1764075371599751412,2025-11-25 18:26:11.597,-1.368000,1.784000,275.940000,-0.014800,0.315200,0.140800,0.335000,0.234000,-10.139000,0.000335,0.004375,-0.008128
1764075371624911116,2025-11-25 18:26:11.621,-1.368000,1.790000,275.929000,-0.014700,0.315300,0.166300,0.326000,0.253000,-10.113000,0.000136,0.004298,-0.009308
1764075371650505449,2025-11-25 18:26:11.648,-1.367000,1.796000,275.918000,-0.014900,0.307600,0.161100,0.301000,0.223000,-10.145000,0.001146,0.003486,-0.007334
1764075371675889264,2025-11-25 18:26:11.672,-1.367000,1.799000,275.905000,-0.015700,0.312400,0.141900,0.343000,0.230000,-10.107000,0.000578,0.002242,-0.007837
1764075371699686708,2025-11-25 18:26:11.697,-1.366000,1.803000,275.893000,-0.015500,0.320100,0.158800,0.300000,0.244000,-10.093000,0.000307,0.002191,-0.009470
1764075371724920190,2025-11-25 18:26:11.722,-1.365000,1.804000,275.882000,-0.013700,0.320100,0.156800,0.346000,0.223000,-10.112000,0.000785,0.001246,-0.007545
1764075371750016079,2025-11-25 18:26:11.747,-1.363000,1.804000,275.872000,-0.015500,0.322000,0.159800,0.310000,0.260000,-10.132000,0.001639,0.000263,-0.007764
1764075371776047023,2025-11-25 18:26:11.772,-1.362000,1.803000,275.861000,-0.016500,0.317200,0.142800,0.323000,0.233000,-10.090000,0.001417,-0.001640,-0.009026
1764075371799681430,2025-11-25 18:26:11.797,-1.362000,1.800000,275.850000,-0.018400,0.316300,0.141700,0.308000,0.223000,-10.158000,0.001195,-0.001722,-0.006264
1764075371824815449,2025-11-25 18:26:11.821,-1.360000,1.797000,275.837000,-0.017500,0.313400,0.159800,0.307000,0.265000,-10.094000,0.000417,-0.003305,-0.008119
1764075371850998264,2025-11-25 18:26:11.848,-1.361000,1.792000,275.824000,-0.014700,0.315300,0.162000,0.317000,0.229000,-10.118000,0.000361,-0.002750,-0.007950
1764075371876303116,2025-11-25 18:26:11.873,-1.360000,1.788000,275.812000,-0.016600,0.312500,0.160900,0.314000,0.235000,-10.135000,0.000008,-0.003550,-0.006582
1764075371900160634,2025-11-25 18:26:11.897,-1.361000,1.780000,275.800000,-0.014700,0.315300,0.159900,0.333000,0.239000,-10.092000,-0.000932,-0.002868,-0.008427
1764075371926953449,2025-11-25 18:26:11.924,-1.361000,1.775000,275.790000,-0.018400,0.314300,0.143800,0.293000,0.234000,-10.179000,-0.000091,-0.004140,-0.007033
1764075371951051153,2025-11-25 18:26:11.948,-1.363000,1.769000,275.776000,-0.016500,0.313400,0.164100,0.337000,0.246000,-10.110000,0.000141,-0.004999,-0.008719
1764075371975970375,2025-11-25 18:26:11.972,-1.364000,1.763000,275.762000,-0.015600,0.317200,0.137600,0.300000,0.240000,-10.101000,-0.000554,-0.004198,-0.008722
1764075372000222041,2025-11-25 18:26:11.997,-1.364000,1.758000,275.750000,-0.018400,0.313400,0.144900,0.303000,0.215000,-10.122000,0.000007,-0.004008,-0.006365
1764075372027508708,2025-11-25 18:26:12.025,-1.365000,1.752000,275.740000,-0.016600,0.313400,0.162000,0.327000,0.255000,-10.095000,-0.000977,-0.003712,-0.007668
1764075372092376356,2025-11-25 18:26:12.090,-1.367000,1.743000,275.717000,-0.018400,0.311500,0.154500,0.303000,0.237000,-10.125000,0.001592,-0.002187,-0.006004
1764075372101700356,2025-11-25 18:26:12.099,-1.367000,1.738000,275.705000,-0.016500,0.316300,0.157700,0.271000,0.281000,-10.118000,0.001295,-0.002660,-0.009112
1764075372127960097,2025-11-25 18:26:12.125,-1.367000,1.736000,275.692000,-0.016500,0.316300,0.159800,0.312000,0.224000,-10.104000,0.000642,-0.001234,-0.007466
1764075372150011430,2025-11-25 18:26:12.147,-1.367000,1.733000,275.679000,-0.016600,0.313300,0.136500,0.290000,0.249000,-10.135000,0.000446,-0.000928,-0.007624
1764075372175374467,2025-11-25 18:26:12.172,-1.367000,1.733000,275.666000,-0.015600,0.315300,0.163100,0.296000,0.239000,-10.132000,0.000007,0.000789,-0.008883
1764075372199448967,2025-11-25 18:26:12.197,-1.367000,1.733000,275.655000,-0.018300,0.315400,0.161900,0.313000,0.235000,-10.143000,0.000657,0.001040,-0.006603
1764075372223751578,2025-11-25 18:26:12.221,-1.367000,1.735000,275.642000,-0.017500,0.312500,0.161900,0.310000,0.233000,-10.167000,0.001278,0.002985,-0.007766
1764075372249622560,2025-11-25 18:26:12.247,-1.366000,1.737000,275.628000,-0.016500,0.313400,0.163000,0.327000,0.254000,-10.107000,0.001703,0.003038,-0.008226
1764075372275314393,2025-11-25 18:26:12.272,-1.364000,1.742000,275.616000,-0.017400,0.316300,0.164000,0.273000,0.242000,-10.148000,0.002171,0.003629,-0.007354
1764075372299246801,2025-11-25 18:26:12.296,-1.362000,1.746000,275.602000,-0.015600,0.319100,0.140700,0.307000,0.252000,-10.108000,0.001970,0.003358,-0.008630
1764075372324109541,2025-11-25 18:26:12.321,-1.361000,1.750000,275.590000,-0.015700,0.310500,0.162100,0.297000,0.256000,-10.117000,0.001995,0.005243,-0.007890
1764075372349662023,2025-11-25 18:26:12.347,-1.359000,1.757000,275.578000,-0.016500,0.317300,0.165100,0.304000,0.224000,-10.111000,0.002661,0.004615,-0.008693
1764075372375289782,2025-11-25 18:26:12.372,-1.355000,1.761000,275.566000,-0.016500,0.317300,0.167300,0.317000,0.234000,-10.104000,0.001730,0.003252,-0.009057
1764075372398920097,2025-11-25 18:26:12.396,-1.353000,1.768000,275.556000,-0.018300,0.315400,0.164000,0.313000,0.238000,-10.137000,0.001233,0.004331,-0.006146
1764075372424024615,2025-11-25 18:26:12.421,-1.352000,1.773000,275.545000,-0.017500,0.310600,0.163000,0.328000,0.244000,-10.137000,0.001165,0.004111,-0.007825
1764075372450414949,2025-11-25 18:26:12.448,-1.348000,1.778000,275.534000,-0.017500,0.312500,0.161900,0.313000,0.250000,-10.127000,0.000821,0.003831,-0.008574
1764075372475584041,2025-11-25 18:26:12.472,-1.348000,1.784000,275.523000,-0.017600,0.311500,0.145000,0.336000,0.219000,-10.145000,0.001091,0.004154,-0.007852
1764075372499609874,2025-11-25 18:26:12.497,-1.346000,1.787000,275.511000,-0.016500,0.315300,0.159800,0.303000,0.242000,-10.106000,0.000951,0.003609,-0.007960
1764075372523499337,2025-11-25 18:26:12.521,-1.346000,1.789000,275.499000,-0.017500,0.313400,0.163000,0.332000,0.230000,-10.128000,0.000652,0.000580,-0.007497
1764075372550706115,2025-11-25 18:26:12.547,-1.347000,1.789000,275.488000,-0.016500,0.314400,0.157700,0.334000,0.248000,-10.116000,-0.000501,0.000600,-0.005526
1764075372575130652,2025-11-25 18:26:12.572,-1.347000,1.790000,275.477000,-0.017400,0.314400,0.161900,0.316000,0.244000,-10.120000,-0.000616,-0.000747,-0.007623
1764075372598223448,2025-11-25 18:26:12.596,-1.348000,1.787000,275.467000,-0.017400,0.318200,0.161900,0.330000,0.215000,-10.132000,-0.000337,-0.001995,-0.006509
1764075372623027171,2025-11-25 18:26:12.620,-1.349000,1.785000,275.456000,-0.018300,0.314400,0.160800,0.331000,0.246000,-10.112000,0.000290,-0.002228,-0.007836
1764075372650360745,2025-11-25 18:26:12.648,-1.351000,1.783000,275.443000,-0.017400,0.315400,0.163000,0.356000,0.219000,-10.125000,-0.001799,-0.003542,-0.009196
1764075372676800930,2025-11-25 18:26:12.674,-1.354000,1.780000,275.433000,-0.015700,0.312400,0.142900,0.306000,0.242000,-10.142000,-0.001847,-0.002828,-0.007097
1764075372700898226,2025-11-25 18:26:12.698,-1.357000,1.776000,275.422000,-0.020200,0.311600,0.161800,0.322000,0.238000,-10.125000,-0.002774,-0.002840,-0.008349
1764075372724048948,2025-11-25 18:26:12.721,-1.360000,1.770000,275.412000,-0.020200,0.310600,0.161800,0.331000,0.230000,-10.118000,-0.002516,-0.003248,-0.006582
1764075372749841300,2025-11-25 18:26:12.747,-1.363000,1.765000,275.400000,-0.018500,0.311500,0.140700,0.297000,0.224000,-10.173000,-0.002448,-0.004423,-0.006342
1764075372775462726,2025-11-25 18:26:12.773,-1.367000,1.758000,275.387000,-0.018400,0.312500,0.163000,0.338000,0.256000,-10.097000,-0.003393,-0.004378,-0.009496
1764075372799747541,2025-11-25 18:26:12.797,-1.371000,1.753000,275.376000,-0.016600,0.313400,0.160900,0.277000,0.238000,-10.114000,-0.003091,-0.003552,-0.007197
1764075372823744763,2025-11-25 18:26:12.821,-1.375000,1.747000,275.364000,-0.019300,0.312500,0.161800,0.294000,0.231000,-10.103000,-0.002712,-0.003170,-0.007619
1764075372849606967,2025-11-25 18:26:12.847,-1.378000,1.741000,275.352000,-0.018400,0.312500,0.159800,0.285000,0.249000,-10.139000,-0.001869,-0.002493,-0.009543
1764075372874698967,2025-11-25 18:26:12.871,-1.380000,1.738000,275.341000,-0.017500,0.313400,0.158700,0.338000,0.252000,-10.137000,-0.001736,-0.001568,-0.007377
1764075372898421337,2025-11-25 18:26:12.895,-1.383000,1.735000,275.330000,-0.017500,0.313400,0.154500,0.274000,0.248000,-10.123000,-0.000740,-0.001158,-0.008247
1764075372924350596,2025-11-25 18:26:12.921,-1.384000,1.732000,275.318000,-0.019200,0.317300,0.163900,0.277000,0.245000,-10.112000,-0.001046,-0.000591,-0.006782
1764075372951558096,2025-11-25 18:26:12.947,-1.385000,1.731000,275.306000,-0.019200,0.315400,0.163900,0.334000,0.242000,-10.143000,0.000045,-0.000094,-0.006783
1764075372978238522,2025-11-25 18:26:12.975,-1.385000,1.733000,275.295000,-0.019200,0.317300,0.157600,0.255000,0.254000,-10.092000,0.000052,0.001482,-0.008549
1764075372998413652,2025-11-25 18:26:12.995,-1.384000,1.734000,275.284000,-0.018200,0.323000,0.161800,0.311000,0.240000,-10.121000,0.000817,0.000955,-0.008336
1764075373025216115,2025-11-25 18:26:13.022,-1.384000,1.736000,275.273000,-0.018400,0.314300,0.141700,0.291000,0.297000,-10.119000,0.000129,0.002315,-0.007160
1764075373091464559,2025-11-25 18:26:13.089,-1.382000,1.743000,275.250000,-0.018300,0.322000,0.135300,0.299000,0.251000,-10.183000,0.001341,0.003135,-0.007182
1764075373100777596,2025-11-25 18:26:13.098,-1.379000,1.749000,275.239000,-0.017600,0.311500,0.141800,0.295000,0.242000,-10.134000,0.002473,0.004623,-0.007569
1764075373124821596,2025-11-25 18:26:13.121,-1.376000,1.753000,275.227000,-0.018400,0.313500,0.162900,0.335000,0.263000,-10.112000,0.002368,0.005638,-0.007952
1764075373152591170,2025-11-25 18:26:13.150,-1.373000,1.760000,275.216000,-0.018400,0.314300,0.140600,0.308000,0.227000,-10.133000,0.003352,0.004124,-0.007005
1764075373175125893,2025-11-25 18:26:13.172,-1.368000,1.765000,275.204000,-0.020200,0.313400,0.149000,0.325000,0.258000,-10.115000,0.004448,0.003374,-0.009382
1764075373199249744,2025-11-25 18:26:13.197,-1.363000,1.772000,275.189000,-0.019300,0.314400,0.160800,0.296000,0.235000,-10.136000,0.003176,0.005150,-0.008715
1764075373224789078,2025-11-25 18:26:13.221,-1.358000,1.777000,275.176000,-0.020200,0.315400,0.158600,0.339000,0.226000,-10.129000,0.003789,0.003776,-0.008258
1764075373250055430,2025-11-25 18:26:13.247,-1.352000,1.781000,275.163000,-0.021000,0.316400,0.159600,0.304000,0.262000,-10.153000,0.003604,0.003871,-0.009239
1764075373274901596,2025-11-25 18:26:13.272,-1.348000,1.785000,275.151000,-0.019300,0.313400,0.140600,0.315000,0.241000,-10.132000,0.002882,0.003029,-0.007053
1764075373299393281,2025-11-25 18:26:13.297,-1.344000,1.788000,275.139000,-0.018400,0.312500,0.157600,0.337000,0.224000,-10.095000,0.003432,0.002238,-0.007867
1764075373323855874,2025-11-25 18:26:13.321,-1.340000,1.792000,275.128000,-0.019300,0.313500,0.159700,0.301000,0.252000,-10.108000,0.003246,0.002609,-0.009056
1764075373348726670,2025-11-25 18:26:13.346,-1.337000,1.794000,275.115000,-0.018400,0.314400,0.159800,0.336000,0.212000,-10.104000,0.003240,0.001404,-0.007356
1764075373375684522,2025-11-25 18:26:13.373,-1.334000,1.797000,275.103000,-0.018400,0.313500,0.164000,0.299000,0.245000,-10.103000,0.001984,0.001357,-0.008760
1764075373399169763,2025-11-25 18:26:13.396,-1.332000,1.796000,275.092000,-0.017500,0.313400,0.161900,0.354000,0.222000,-10.120000,0.000229,0.000169,-0.008621
1764075373424677318,2025-11-25 18:26:13.421,-1.331000,1.797000,275.079000,-0.020100,0.318300,0.160700,0.307000,0.244000,-10.131000,-0.000437,-0.000052,-0.008427
1764075373448179226,2025-11-25 18:26:13.445,-1.330000,1.798000,275.067000,-0.021100,0.311600,0.164900,0.323000,0.254000,-10.132000,-0.000023,-0.000159,-0.007891
1764075373474446670,2025-11-25 18:26:13.472,-1.330000,1.797000,275.056000,-0.020200,0.312500,0.162900,0.305000,0.222000,-10.145000,-0.000121,-0.000462,-0.007842
1764075373499333966,2025-11-25 18:26:13.496,-1.330000,1.796000,275.044000,-0.019300,0.313500,0.161800,0.304000,0.257000,-10.095000,-0.000574,-0.000961,-0.007841
1764075373523721689,2025-11-25 18:26:13.521,-1.333000,1.793000,275.031000,-0.020100,0.317300,0.163900,0.352000,0.235000,-10.107000,-0.002332,-0.001923,-0.007014
1764075373548843189,2025-11-25 18:26:13.546,-1.336000,1.792000,275.020000,-0.019300,0.313500,0.164000,0.294000,0.241000,-10.146000,-0.002261,-0.001044,-0.006450
1764075373576007874,2025-11-25 18:26:13.573,-1.339000,1.789000,275.010000,-0.021000,0.318300,0.161700,0.335000,0.240000,-10.143000,-0.002477,-0.002616,-0.007055
1764075373599240948,2025-11-25 18:26:13.596,-1.343000,1.786000,275.000000,-0.020200,0.310600,0.160800,0.318000,0.236000,-10.114000,-0.001767,-0.001912,-0.007445
1764075373623958263,2025-11-25 18:26:13.621,-1.349000,1.784000,274.990000,-0.020100,0.315400,0.165000,0.314000,0.239000,-10.136000,-0.001738,-0.000309,-0.006607
1764075373649878466,2025-11-25 18:26:13.646,-1.354000,1.779000,274.978000,-0.020200,0.311600,0.160700,0.332000,0.243000,-10.108000,-0.002935,-0.003077,-0.008278
1764075373676008633,2025-11-25 18:26:13.673,-1.358000,1.777000,274.967000,-0.020100,0.317300,0.161800,0.284000,0.213000,-10.104000,-0.002772,-0.002848,-0.007338
1764075373699483818,2025-11-25 18:26:13.697,-1.362000,1.772000,274.956000,-0.020100,0.320100,0.139400,0.332000,0.220000,-10.111000,-0.002544,-0.002043,-0.007523
1764075373723018985,2025-11-25 18:26:13.720,-1.365000,1.769000,274.947000,-0.020200,0.315300,0.143700,0.320000,0.259000,-10.083000,-0.002165,-0.003070,-0.008499
1764075373748825540,2025-11-25 18:26:13.746,-1.369000,1.765000,274.935000,-0.022000,0.314500,0.161700,0.327000,0.231000,-10.133000,-0.000917,-0.002532,-0.007622
1764075373773998096,2025-11-25 18:26:13.771,-1.371000,1.761000,274.925000,-0.020200,0.310600,0.163900,0.295000,0.282000,-10.085000,-0.001649,-0.003153,-0.008263
1764075373798212559,2025-11-25 18:26:13.795,-1.374000,1.757000,274.912000,-0.019200,0.315400,0.163900,0.320000,0.230000,-10.135000,-0.000313,-0.003435,-0.008767
1764075373824943614,2025-11-25 18:26:13.822,-1.376000,1.752000,274.901000,-0.021000,0.316400,0.160700,0.314000,0.235000,-10.164000,-0.000374,-0.001472,-0.006839
1764075373851723188,2025-11-25 18:26:13.848,-1.377000,1.749000,274.889000,-0.022000,0.311600,0.160600,0.309000,0.250000,-10.127000,0.000111,-0.001343,-0.008657
1764075373875356614,2025-11-25 18:26:13.871,-1.378000,1.744000,274.877000,-0.022000,0.311600,0.159600,0.309000,0.253000,-10.106000,0.000148,-0.001675,-0.008726
1764075373899138003,2025-11-25 18:26:13.896,-1.378000,1.742000,274.864000,-0.020200,0.312500,0.161800,0.286000,0.241000,-10.112000,0.000765,-0.002643,-0.008148
1764075373927372837,2025-11-25 18:26:13.924,-1.377000,1.738000,274.853000,-0.023000,0.312500,0.143600,0.325000,0.269000,-10.112000,0.001224,-0.001029,-0.007887
1764075373949695929,2025-11-25 18:26:13.947,-1.375000,1.737000,274.841000,-0.022100,0.312500,0.141500,0.295000,0.240000,-10.135000,0.002041,-0.001436,-0.007203
1764075373974934114,2025-11-25 18:26:13.972,-1.371000,1.736000,274.828000,-0.020300,0.308700,0.159700,0.322000,0.259000,-10.146000,0.002351,-0.000986,-0.007871
1764075373998613707,2025-11-25 18:26:13.995,-1.370000,1.733000,274.817000,-0.021900,0.316400,0.157400,0.299000,0.246000,-10.116000,0.001515,-0.000695,-0.008169
1764075374024662837,2025-11-25 18:26:14.021,-1.367000,1.734000,274.805000,-0.022900,0.316400,0.157400,0.311000,0.241000,-10.131000,0.002629,0.000985,-0.007980
1764075374089559744,2025-11-25 18:26:14.087,-1.363000,1.735000,274.780000,-0.021200,0.312500,0.138400,0.311000,0.211000,-10.103000,0.001747,0.001879,-0.007889
1764075374098918355,2025-11-25 18:26:14.096,-1.360000,1.737000,274.769000,-0.020000,0.320200,0.161700,0.317000,0.216000,-10.126000,0.002254,0.002455,-0.007080
1764075374124017355,2025-11-25 18:26:14.121,-1.359000,1.741000,274.759000,-0.021000,0.316400,0.160700,0.295000,0.260000,-10.121000,0.000936,0.001892,-0.007940
1764075374152196614,2025-11-25 18:26:14.148,-1.357000,1.745000,274.748000,-0.022800,0.318300,0.162700,0.326000,0.219000,-10.136000,0.002032,0.002746,-0.007735
1764075374173821577,2025-11-25 18:26:14.171,-1.356000,1.748000,274.736000,-0.019200,0.317300,0.163900,0.291000,0.261000,-10.106000,0.000691,0.003657,-0.007550
1764075374199853355,2025-11-25 18:26:14.197,-1.354000,1.753000,274.727000,-0.022000,0.314500,0.163800,0.275000,0.256000,-10.112000,-0.000253,0.004501,-0.008757
1764075374223056559,2025-11-25 18:26:14.220,-1.353000,1.756000,274.717000,-0.021100,0.310600,0.163900,0.341000,0.216000,-10.157000,0.000888,0.003422,-0.005713
1764075374249285373,2025-11-25 18:26:14.247,-1.352000,1.763000,274.706000,-0.023700,0.317400,0.159400,0.308000,0.257000,-10.139000,0.000509,0.003983,-0.008759
1764075374274165707,2025-11-25 18:26:14.271,-1.353000,1.768000,274.696000,-0.022000,0.314500,0.162800,0.331000,0.245000,-10.111000,0.000114,0.003711,-0.007495
1764075374298810466,2025-11-25 18:26:14.296,-1.353000,1.774000,274.685000,-0.022900,0.316300,0.139300,0.272000,0.227000,-10.112000,-0.000772,0.003504,-0.007702
1764075374323001614,2025-11-25 18:26:14.320,-1.354000,1.779000,274.674000,-0.022000,0.315400,0.157400,0.329000,0.227000,-10.123000,-0.000540,0.003624,-0.007604
1764075374348929447,2025-11-25 18:26:14.346,-1.354000,1.784000,274.663000,-0.022900,0.315400,0.137200,0.305000,0.210000,-10.095000,-0.000207,0.004637,-0.007279
1764075374373618281,2025-11-25 18:26:14.370,-1.355000,1.790000,274.652000,-0.025600,0.315400,0.142400,0.328000,0.243000,-10.144000,-0.000376,0.003642,-0.006204
1764075374397868910,2025-11-25 18:26:14.395,-1.356000,1.795000,274.638000,-0.020300,0.311500,0.140600,0.330000,0.270000,-10.083000,-0.000800,0.003435,-0.008416
1764075374424287688,2025-11-25 18:26:14.421,-1.359000,1.799000,274.628000,-0.020900,0.320200,0.160600,0.324000,0.215000,-10.155000,-0.000267,0.002181,-0.006673
1764075374450574892,2025-11-25 18:26:14.447,-1.361000,1.802000,274.618000,-0.022000,0.316400,0.156400,0.324000,0.248000,-10.134000,-0.000863,0.002018,-0.008171
1764075374475234836,2025-11-25 18:26:14.472,-1.363000,1.805000,274.606000,-0.022000,0.312600,0.159600,0.303000,0.232000,-10.121000,-0.002289,0.000737,-0.007335
1764075374498968744,2025-11-25 18:26:14.496,-1.364000,1.805000,274.595000,-0.022000,0.315400,0.162700,0.333000,0.217000,-10.170000,-0.000355,0.000794,-0.006321
1764075374523527781,2025-11-25 18:26:14.520,-1.365000,1.805000,274.582000,-0.024600,0.319300,0.160400,0.314000,0.257000,-10.090000,0.000312,-0.000813,-0.008283
1764075374548655188,2025-11-25 18:26:14.546,-1.366000,1.805000,274.571000,-0.022900,0.315400,0.144600,0.351000,0.235000,-10.130000,-0.000371,-0.000640,-0.007645
1764075374575344688,2025-11-25 18:26:14.571,-1.368000,1.802000,274.558000,-0.022900,0.315400,0.139300,0.321000,0.260000,-10.122000,-0.000526,-0.001750,-0.007102
1764075374599775873,2025-11-25 18:26:14.597,-1.368000,1.800000,274.546000,-0.021100,0.314500,0.164900,0.316000,0.245000,-10.099000,-0.000314,-0.002270,-0.008852
1764075374622862966,2025-11-25 18:26:14.620,-1.369000,1.796000,274.534000,-0.021200,0.309600,0.140500,0.333000,0.239000,-10.131000,-0.000294,-0.002116,-0.007767
1764075374649624855,2025-11-25 18:26:14.646,-1.369000,1.792000,274.522000,-0.021000,0.315400,0.167000,0.286000,0.268000,-10.112000,0.000464,-0.002770,-0.009119
1764075374676454003,2025-11-25 18:26:14.674,-1.370000,1.787000,274.511000,-0.022800,0.317400,0.159500,0.314000,0.222000,-10.118000,-0.000034,-0.003064,-0.008514
1764075374699304910,2025-11-25 18:26:14.697,-1.370000,1.782000,274.501000,-0.021200,0.312500,0.144800,0.302000,0.240000,-10.140000,-0.000604,-0.003062,-0.005903
1764075374722919873,2025-11-25 18:26:14.720,-1.369000,1.777000,274.488000,-0.023800,0.315500,0.163700,0.331000,0.253000,-10.081000,0.001477,-0.004812,-0.008821
1764075374749273558,2025-11-25 18:26:14.746,-1.368000,1.770000,274.478000,-0.023000,0.309700,0.162700,0.312000,0.241000,-10.099000,0.000873,-0.004260,-0.008007
1764075374775612947,2025-11-25 18:26:14.773,-1.368000,1.766000,274.466000,-0.024700,0.315500,0.163700,0.283000,0.233000,-10.103000,0.000650,-0.003881,-0.006969
1764075374798826392,2025-11-25 18:26:14.796,-1.368000,1.758000,274.454000,-0.022900,0.311600,0.162700,0.302000,0.261000,-10.122000,-0.000222,-0.004716,-0.009185
1764075374824131280,2025-11-25 18:26:14.821,-1.367000,1.752000,274.443000,-0.026500,0.315500,0.160400,0.286000,0.236000,-10.136000,0.000661,-0.004119,-0.007623
1764075374849125318,2025-11-25 18:26:14.846,-1.366000,1.745000,274.429000,-0.023000,0.313500,0.138300,0.324000,0.259000,-10.136000,0.001241,-0.004476,-0.008135
1764075374875709836,2025-11-25 18:26:14.872,-1.365000,1.739000,274.418000,-0.022900,0.313500,0.162700,0.306000,0.251000,-10.105000,0.000532,-0.003620,-0.010027
1764075374900177392,2025-11-25 18:26:14.897,-1.365000,1.735000,274.406000,-0.023800,0.313500,0.160500,0.327000,0.232000,-10.135000,0.000935,-0.002704,-0.009152
1764075374925075651,2025-11-25 18:26:14.922,-1.367000,1.731000,274.395000,-0.023800,0.315500,0.162600,0.285000,0.239000,-10.112000,-0.000714,-0.001735,-0.008941
1764075374950818799,2025-11-25 18:26:14.947,-1.365000,1.728000,274.382000,-0.024800,0.311700,0.162600,0.305000,0.231000,-10.117000,0.000480,-0.002692,-0.008738
1764075374977666373,2025-11-25 18:26:14.975,-1.365000,1.724000,274.369000,-0.024700,0.313600,0.160500,0.342000,0.225000,-10.129000,0.001570,-0.000754,-0.007722
1764075374998904521,2025-11-25 18:26:14.996,-1.364000,1.723000,274.356000,-0.023000,0.310700,0.164900,0.296000,0.250000,-10.123000,0.000830,-0.000701,-0.008883
1764075375025252651,2025-11-25 18:26:15.021,-1.363000,1.722000,274.346000,-0.022200,0.306700,0.141600,0.319000,0.221000,-10.121000,0.000373,0.000410,-0.007448
1764075375092696169,2025-11-25 18:26:15.090,-1.363000,1.724000,274.321000,-0.023900,0.309700,0.165900,0.308000,0.259000,-10.081000,-0.000277,0.001760,-0.008158
1764075375102013577,2025-11-25 18:26:15.099,-1.364000,1.726000,274.310000,-0.023900,0.309700,0.159500,0.300000,0.214000,-10.100000,-0.000688,0.002015,-0.008411
1764075375127140817,2025-11-25 18:26:15.124,-1.364000,1.730000,274.297000,-0.024700,0.315500,0.160500,0.288000,0.232000,-10.098000,-0.000133,0.003987,-0.008185
1764075375149311928,2025-11-25 18:26:15.146,-1.365000,1.733000,274.286000,-0.024700,0.313600,0.159400,0.292000,0.241000,-10.097000,-0.001023,0.003761,-0.008115
1764075375177636651,2025-11-25 18:26:15.174,-1.365000,1.738000,274.275000,-0.022900,0.314500,0.158500,0.314000,0.242000,-10.146000,0.000239,0.004363,-0.006455
1764075375199344336,2025-11-25 18:26:15.196,-1.365000,1.743000,274.264000,-0.023700,0.317400,0.156300,0.313000,0.268000,-10.110000,0.000259,0.003807,-0.007262
1764075375224428077,2025-11-25 18:26:15.221,-1.364000,1.748000,274.253000,-0.022000,0.313500,0.161700,0.283000,0.241000,-10.143000,0.000064,0.003642,-0.007814
1764075375246768243,2025-11-25 18:26:15.244,-1.365000,1.754000,274.242000,-0.023800,0.312600,0.158400,0.316000,0.234000,-10.155000,-0.000564,0.004301,-0.007177
1764075375275469336,2025-11-25 18:26:15.272,-1.365000,1.758000,274.230000,-0.025600,0.315500,0.159400,0.304000,0.257000,-10.092000,0.000134,0.003499,-0.008382
1764075375298657725,2025-11-25 18:26:15.295,-1.365000,1.764000,274.220000,-0.023800,0.314500,0.160500,0.346000,0.210000,-10.144000,-0.000037,0.003570,-0.006176
1764075375323681114,2025-11-25 18:26:15.321,-1.365000,1.770000,274.210000,-0.025500,0.317400,0.163600,0.328000,0.262000,-10.117000,0.000615,0.003604,-0.007255
1764075375348590873,2025-11-25 18:26:15.345,-1.365000,1.776000,274.199000,-0.023000,0.311600,0.160600,0.322000,0.249000,-10.113000,0.000770,0.003011,-0.007352
1764075375374662873,2025-11-25 18:26:15.371,-1.366000,1.779000,274.187000,-0.024700,0.312600,0.160500,0.351000,0.192000,-10.122000,0.000063,0.001637,-0.006719
1764075375397944651,2025-11-25 18:26:15.395,-1.365000,1.783000,274.176000,-0.023700,0.319300,0.158400,0.299000,0.276000,-10.081000,0.000255,0.001327,-0.008866
1764075375423835836,2025-11-25 18:26:15.420,-1.365000,1.786000,274.164000,-0.023700,0.319300,0.161600,0.363000,0.225000,-10.140000,0.000354,0.001119,-0.007654
1764075375448594854,2025-11-25 18:26:15.445,-1.364000,1.788000,274.154000,-0.025600,0.314500,0.160400,0.305000,0.232000,-10.145000,0.001141,0.000477,-0.007213
1764075375475328280,2025-11-25 18:26:15.472,-1.363000,1.790000,274.142000,-0.024700,0.314500,0.156200,0.320000,0.258000,-10.116000,0.001616,-0.000115,-0.009600
1764075375498707613,2025-11-25 18:26:15.496,-1.362000,1.788000,274.130000,-0.023800,0.312600,0.162700,0.324000,0.226000,-10.119000,0.001299,-0.001733,-0.007879
1764075375524371002,2025-11-25 18:26:15.521,-1.360000,1.788000,274.119000,-0.027400,0.314600,0.156100,0.312000,0.259000,-10.117000,0.001434,-0.001004,-0.006182
1764075375548427224,2025-11-25 18:26:15.545,-1.360000,1.784000,274.108000,-0.024700,0.314500,0.158400,0.351000,0.259000,-10.094000,0.000768,-0.002503,-0.008273
1764075375577600706,2025-11-25 18:26:15.574,-1.359000,1.783000,274.098000,-0.025700,0.312600,0.161500,0.286000,0.241000,-10.133000,0.001516,-0.002274,-0.007647
1764075375598186613,2025-11-25 18:26:15.595,-1.359000,1.779000,274.087000,-0.024900,0.309700,0.142500,0.319000,0.226000,-10.106000,0.002399,-0.003724,-0.007031
1764075375625539373,2025-11-25 18:26:15.622,-1.358000,1.775000,274.076000,-0.025600,0.313600,0.160400,0.311000,0.253000,-10.057000,0.001071,-0.002352,-0.007678
1764075375650944187,2025-11-25 18:26:15.648,-1.357000,1.771000,274.065000,-0.024700,0.313600,0.162600,0.324000,0.198000,-10.151000,0.000393,-0.002393,-0.006493
1764075375675743632,2025-11-25 18:26:15.672,-1.357000,1.767000,274.054000,-0.023900,0.311600,0.163700,0.303000,0.252000,-10.143000,-0.000186,-0.001979,-0.006753
1764075375699551002,2025-11-25 18:26:15.697,-1.357000,1.763000,274.044000,-0.024800,0.311700,0.162600,0.313000,0.217000,-10.126000,-0.000310,-0.003771,-0.007463
1764075375724434465,2025-11-25 18:26:15.721,-1.357000,1.758000,274.032000,-0.028300,0.314600,0.161400,0.307000,0.240000,-10.148000,-0.000274,-0.003346,-0.007326
1764075375748484187,2025-11-25 18:26:15.745,-1.357000,1.754000,274.019000,-0.027500,0.311700,0.157200,0.283000,0.253000,-10.119000,-0.001223,-0.002142,-0.007430
1764075375775320724,2025-11-25 18:26:15.772,-1.358000,1.750000,274.009000,-0.026600,0.311700,0.164700,0.302000,0.213000,-10.120000,-0.000302,-0.001742,-0.006080
1764075375798687169,2025-11-25 18:26:15.796,-1.359000,1.748000,273.997000,-0.026600,0.312600,0.163600,0.288000,0.250000,-10.133000,-0.000011,0.000270,-0.008570
1764075375825277872,2025-11-25 18:26:15.822,-1.359000,1.747000,273.984000,-0.022900,0.311600,0.164900,0.313000,0.230000,-10.118000,-0.000635,-0.000604,-0.007375
1764075375848764224,2025-11-25 18:26:15.846,-1.360000,1.745000,273.975000,-0.024800,0.311600,0.160500,0.275000,0.233000,-10.130000,0.000571,0.000093,-0.007043
1764075375874768502,2025-11-25 18:26:15.872,-1.361000,1.744000,273.962000,-0.025700,0.309800,0.163700,0.321000,0.255000,-10.116000,-0.001072,0.000193,-0.008276
1764075375898087613,2025-11-25 18:26:15.895,-1.363000,1.743000,273.950000,-0.027600,0.307900,0.159300,0.306000,0.251000,-10.117000,-0.000800,0.001131,-0.008272
1764075375928093706,2025-11-25 18:26:15.924,-1.364000,1.744000,273.940000,-0.026600,0.312600,0.162500,0.284000,0.268000,-10.121000,0.000299,0.001140,-0.007517
1764075375948461409,2025-11-25 18:26:15.946,-1.366000,1.745000,273.929000,-0.026700,0.307800,0.141300,0.320000,0.247000,-10.131000,0.000714,0.001790,-0.008538
1764075375975792539,2025-11-25 18:26:15.973,-1.367000,1.747000,273.917000,-0.026600,0.311600,0.138100,0.289000,0.236000,-10.090000,0.000462,0.001709,-0.007125
1764075375999242391,2025-11-25 18:26:15.996,-1.367000,1.749000,273.905000,-0.026500,0.317400,0.158200,0.315000,0.252000,-10.088000,0.001073,0.002192,-0.007502
1764075376026560021,2025-11-25 18:26:16.023,-1.367000,1.750000,273.893000,-0.026600,0.310700,0.160400,0.291000,0.243000,-10.104000,-0.000576,0.000955,-0.008329
1764075376090008372,2025-11-25 18:26:16.088,-1.368000,1.755000,273.869000,-0.027500,0.313600,0.157200,0.301000,0.250000,-10.144000,0.000527,0.001702,-0.008000
1764075376099170335,2025-11-25 18:26:16.097,-1.368000,1.758000,273.857000,-0.026600,0.312600,0.162500,0.298000,0.249000,-10.109000,-0.000190,0.001330,-0.009417
1764075376125723798,2025-11-25 18:26:16.123,-1.367000,1.760000,273.844000,-0.027400,0.315500,0.161400,0.333000,0.225000,-10.168000,0.000472,0.001490,-0.008176
1764075376149706372,2025-11-25 18:26:16.147,-1.366000,1.763000,273.830000,-0.028500,0.308800,0.142300,0.294000,0.261000,-10.113000,0.000370,0.001778,-0.009125
1764075376175644372,2025-11-25 18:26:16.172,-1.367000,1.765000,273.820000,-0.030200,0.312700,0.162300,0.336000,0.207000,-10.124000,-0.001169,0.001877,-0.007850
1764075376199042206,2025-11-25 18:26:16.196,-1.367000,1.766000,273.807000,-0.027400,0.313600,0.164600,0.319000,0.238000,-10.128000,0.000870,0.000742,-0.007982
1764075376223317650,2025-11-25 18:26:16.221,-1.366000,1.768000,273.796000,-0.025700,0.309700,0.161500,0.316000,0.245000,-10.096000,0.001247,0.000403,-0.007453
1764075376250379909,2025-11-25 18:26:16.247,-1.365000,1.769000,273.786000,-0.028300,0.314600,0.159200,0.339000,0.230000,-10.182000,0.001378,0.000411,-0.005591
1764075376274190594,2025-11-25 18:26:16.271,-1.365000,1.769000,273.775000,-0.028300,0.317500,0.160300,0.302000,0.247000,-10.117000,0.000535,-0.000632,-0.007780
1764075376298812965,2025-11-25 18:26:16.296,-1.365000,1.767000,273.766000,-0.025600,0.314500,0.160400,0.322000,0.235000,-10.150000,-0.000678,-0.001754,-0.006270
1764075376325275668,2025-11-25 18:26:16.322,-1.365000,1.766000,273.755000,-0.026600,0.311600,0.149800,0.303000,0.206000,-10.138000,0.000113,-0.000692,-0.005789
1764075376348854076,2025-11-25 18:26:16.346,-1.365000,1.764000,273.744000,-0.025700,0.311700,0.158300,0.312000,0.251000,-10.131000,-0.000355,-0.001564,-0.008300
1764075376376192261,2025-11-25 18:26:16.372,-1.365000,1.760000,273.735000,-0.027400,0.316500,0.156100,0.283000,0.239000,-10.098000,0.000522,-0.001382,-0.007850
1764075376399566243,2025-11-25 18:26:16.397,-1.367000,1.757000,273.725000,-0.029100,0.322300,0.157000,0.323000,0.225000,-10.120000,0.000818,-0.002355,-0.005968
1764075376425203039,2025-11-25 18:26:16.422,-1.367000,1.753000,273.714000,-0.025600,0.316400,0.156200,0.331000,0.249000,-10.116000,-0.000013,-0.002166,-0.007898
1764075376449854613,2025-11-25 18:26:16.447,-1.367000,1.751000,273.705000,-0.028300,0.319300,0.141100,0.329000,0.239000,-10.142000,0.000357,-0.001989,-0.007394
1764075376474939835,2025-11-25 18:26:16.472,-1.368000,1.747000,273.695000,-0.029100,0.319400,0.162300,0.325000,0.252000,-10.108000,0.000595,-0.002285,-0.007910
1764075376499099224,2025-11-25 18:26:16.496,-1.368000,1.744000,273.682000,-0.028400,0.311700,0.163500,0.268000,0.260000,-10.090000,-0.000539,-0.002561,-0.008039
1764075376524220705,2025-11-25 18:26:16.521,-1.369000,1.739000,273.672000,-0.026600,0.310700,0.159400,0.327000,0.246000,-10.150000,0.000890,-0.001722,-0.008032
1764075376549382594,2025-11-25 18:26:16.546,-1.369000,1.736000,273.660000,-0.027500,0.309800,0.163600,0.300000,0.250000,-10.125000,0.000039,-0.001627,-0.008347
1764075376575753409,2025-11-25 18:26:16.572,-1.369000,1.735000,273.647000,-0.027500,0.312700,0.160400,0.292000,0.234000,-10.144000,-0.000222,-0.000882,-0.009070
1764075376598646335,2025-11-25 18:26:16.596,-1.370000,1.731000,273.635000,-0.027500,0.312700,0.159300,0.283000,0.244000,-10.137000,-0.000076,-0.001425,-0.007015
1764075376624374224,2025-11-25 18:26:16.621,-1.369000,1.730000,273.621000,-0.026500,0.316500,0.160400,0.273000,0.247000,-10.100000,0.000723,-0.000760,-0.009660
1764075376652050928,2025-11-25 18:26:16.648,-1.369000,1.728000,273.611000,-0.025600,0.313600,0.159400,0.315000,0.226000,-10.123000,0.000779,-0.000393,-0.008317
1764075376671854520,2025-11-25 18:26:16.669,-1.368000,1.728000,273.599000,-0.026600,0.313600,0.157200,0.293000,0.249000,-10.132000,0.001869,0.000793,-0.007390
1764075376699310150,2025-11-25 18:26:16.696,-1.368000,1.728000,273.585000,-0.029100,0.322300,0.160200,0.316000,0.237000,-10.083000,0.000894,0.000972,-0.010481
1764075376724208668,2025-11-25 18:26:16.721,-1.366000,1.729000,273.573000,-0.029300,0.310800,0.160300,0.288000,0.232000,-10.161000,0.002282,0.002769,-0.006672
1764075376749157279,2025-11-25 18:26:16.746,-1.364000,1.731000,273.561000,-0.027400,0.313600,0.162500,0.317000,0.239000,-10.123000,0.000921,0.003275,-0.008387
1764075376774607261,2025-11-25 18:26:16.771,-1.361000,1.734000,273.551000,-0.028400,0.312600,0.140100,0.301000,0.252000,-10.106000,0.001822,0.003369,-0.007560
1764075376799472539,2025-11-25 18:26:16.796,-1.359000,1.739000,273.539000,-0.030200,0.312700,0.157000,0.303000,0.229000,-10.142000,0.001219,0.002634,-0.006581
1764075376824413668,2025-11-25 18:26:16.821,-1.357000,1.741000,273.528000,-0.028300,0.317400,0.143300,0.307000,0.260000,-10.106000,0.001119,0.003102,-0.008026
1764075376849946187,2025-11-25 18:26:16.847,-1.354000,1.747000,273.515000,-0.028400,0.310800,0.160300,0.304000,0.241000,-10.138000,0.001608,0.004926,-0.007992
1764075376875611520,2025-11-25 18:26:16.872,-1.354000,1.753000,273.504000,-0.030300,0.309800,0.139000,0.347000,0.227000,-10.147000,0.000343,0.004094,-0.007035
1764075376899568039,2025-11-25 18:26:16.897,-1.353000,1.760000,273.491000,-0.026600,0.308800,0.161500,0.293000,0.246000,-10.140000,0.000514,0.005572,-0.007819
1764075376925131020,2025-11-25 18:26:16.921,-1.354000,1.766000,273.480000,-0.029200,0.314600,0.163400,0.332000,0.221000,-10.140000,0.000895,0.004229,-0.006224
1764075376951662131,2025-11-25 18:26:16.949,-1.353000,1.770000,273.470000,-0.028400,0.310800,0.159300,0.290000,0.232000,-10.113000,-0.000390,0.003185,-0.006443
1764075376976100557,2025-11-25 18:26:16.972,-1.354000,1.778000,273.461000,-0.029400,0.309800,0.145400,0.303000,0.239000,-10.140000,0.000137,0.004861,-0.007591
1764075377000375279,2025-11-25 18:26:16.997,-1.355000,1.784000,273.452000,-0.030100,0.314600,0.164500,0.335000,0.223000,-10.111000,-0.000761,0.004853,-0.006401
1764075377026544779,2025-11-25 18:26:17.023,-1.356000,1.790000,273.441000,-0.028500,0.308800,0.138000,0.307000,0.243000,-10.153000,-0.000317,0.003595,-0.006839
1764075377091951409,2025-11-25 18:26:17.089,-1.360000,1.799000,273.421000,-0.029300,0.310800,0.161300,0.289000,0.236000,-10.174000,0.000465,0.002310,-0.006018
1764075377101212427,2025-11-25 18:26:17.099,-1.361000,1.803000,273.410000,-0.031200,0.310700,0.136800,0.348000,0.253000,-10.126000,-0.000906,0.001671,-0.006412
1764075377126842575,2025-11-25 18:26:17.124,-1.363000,1.804000,273.398000,-0.030200,0.311700,0.160200,0.329000,0.258000,-10.110000,-0.001710,0.000151,-0.006698
1764075377153100631,2025-11-25 18:26:17.149,-1.364000,1.807000,273.387000,-0.028400,0.311700,0.163500,0.320000,0.231000,-10.159000,-0.000116,0.000625,-0.007369
1764075377175513520,2025-11-25 18:26:17.172,-1.366000,1.805000,273.377000,-0.028400,0.310800,0.164600,0.344000,0.238000,-10.121000,0.000424,-0.001381,-0.008364
1764075377199706261,2025-11-25 18:26:17.197,-1.367000,1.805000,273.367000,-0.028300,0.316500,0.162400,0.338000,0.232000,-10.122000,-0.001011,-0.002288,-0.006132
1764075377224098390,2025-11-25 18:26:17.221,-1.369000,1.802000,273.356000,-0.027500,0.310700,0.150800,0.310000,0.234000,-10.131000,-0.000715,-0.002036,-0.008106
1764075377249103020,2025-11-25 18:26:17.246,-1.371000,1.798000,273.346000,-0.030200,0.311800,0.163400,0.317000,0.256000,-10.117000,-0.000973,-0.002826,-0.007545
1764075377276187316,2025-11-25 18:26:17.273,-1.372000,1.793000,273.334000,-0.030900,0.320400,0.163300,0.340000,0.229000,-10.137000,-0.000521,-0.004282,-0.005467
1764075377299031779,2025-11-25 18:26:17.296,-1.372000,1.787000,273.324000,-0.030300,0.308900,0.161300,0.319000,0.240000,-10.111000,0.000591,-0.004883,-0.008286
1764075377324141520,2025-11-25 18:26:17.321,-1.373000,1.781000,273.312000,-0.029300,0.311700,0.161300,0.320000,0.241000,-10.137000,-0.000442,-0.004683,-0.007229
1764075377351078538,2025-11-25 18:26:17.348,-1.374000,1.773000,273.301000,-0.027500,0.310700,0.161400,0.307000,0.229000,-10.144000,0.000137,-0.005251,-0.006206
1764075377375298168,2025-11-25 18:26:17.372,-1.374000,1.766000,273.292000,-0.030100,0.315600,0.163400,0.314000,0.268000,-10.107000,-0.000561,-0.004727,-0.008260
1764075377399236705,2025-11-25 18:26:17.397,-1.374000,1.757000,273.279000,-0.029200,0.318400,0.143200,0.351000,0.226000,-10.072000,0.000501,-0.006186,-0.006965
1764075377422490890,2025-11-25 18:26:17.420,-1.375000,1.749000,273.268000,-0.028400,0.310800,0.160300,0.290000,0.254000,-10.105000,0.000981,-0.005087,-0.008057
1764075377450215205,2025-11-25 18:26:17.447,-1.375000,1.740000,273.257000,-0.028400,0.312700,0.154000,0.322000,0.263000,-10.102000,-0.000041,-0.005039,-0.009503
1764075377476716723,2025-11-25 18:26:17.473,-1.375000,1.732000,273.247000,-0.028400,0.312700,0.159300,0.292000,0.248000,-10.118000,0.000831,-0.004528,-0.006178
1764075377499811260,2025-11-25 18:26:17.497,-1.375000,1.726000,273.236000,-0.029200,0.315600,0.157100,0.319000,0.231000,-10.132000,0.000577,-0.004680,-0.007628
1764075377523538742,2025-11-25 18:26:17.521,-1.374000,1.719000,273.224000,-0.030200,0.312700,0.158100,0.313000,0.258000,-10.118000,0.000043,-0.003483,-0.008453
1764075377551074871,2025-11-25 18:26:17.547,-1.374000,1.713000,273.212000,-0.029300,0.312700,0.160300,0.274000,0.212000,-10.155000,0.000768,-0.002567,-0.007183
1764075377575897446,2025-11-25 18:26:17.573,-1.373000,1.708000,273.201000,-0.029300,0.314500,0.139000,0.306000,0.245000,-10.113000,-0.000357,-0.002002,-0.008672
1764075377599841390,2025-11-25 18:26:17.597,-1.372000,1.704000,273.190000,-0.028400,0.311700,0.160300,0.291000,0.234000,-10.133000,0.001735,-0.002288,-0.005765
1764075377625161575,2025-11-25 18:26:17.622,-1.371000,1.700000,273.178000,-0.031100,0.311800,0.160200,0.320000,0.229000,-10.123000,0.002142,-0.000663,-0.007598
1764075377650139223,2025-11-25 18:26:17.647,-1.370000,1.699000,273.167000,-0.030200,0.312700,0.162400,0.291000,0.263000,-10.119000,-0.000457,-0.000795,-0.008324
1764075377676045020,2025-11-25 18:26:17.673,-1.368000,1.700000,273.157000,-0.031100,0.313700,0.160200,0.296000,0.232000,-10.128000,0.001561,0.001025,-0.006752
1764075377699524038,2025-11-25 18:26:17.697,-1.366000,1.700000,273.145000,-0.028400,0.311700,0.159300,0.276000,0.241000,-10.119000,0.001136,0.002700,-0.006610
1764075377723884186,2025-11-25 18:26:17.721,-1.364000,1.704000,273.136000,-0.029200,0.316500,0.160200,0.297000,0.244000,-10.098000,0.001101,0.002869,-0.007638
1764075377750500001,2025-11-25 18:26:17.747,-1.363000,1.706000,273.125000,-0.028300,0.314600,0.161400,0.313000,0.241000,-10.115000,0.002054,0.003416,-0.008051
1764075377778825186,2025-11-25 18:26:17.776,-1.362000,1.713000,273.114000,-0.029200,0.316500,0.161300,0.302000,0.269000,-10.094000,0.001104,0.005138,-0.008360
1764075377798136927,2025-11-25 18:26:17.795,-1.361000,1.719000,273.103000,-0.030100,0.315600,0.160200,0.303000,0.233000,-10.104000,0.000896,0.004627,-0.006773
1764075377823682186,2025-11-25 18:26:17.821,-1.359000,1.727000,273.093000,-0.029300,0.314600,0.157100,0.313000,0.249000,-10.154000,0.001893,0.006074,-0.006101
1764075377849693593,2025-11-25 18:26:17.847,-1.358000,1.736000,273.082000,-0.030100,0.315600,0.158100,0.324000,0.236000,-10.084000,0.001628,0.005933,-0.008180
1764075377875125038,2025-11-25 18:26:17.872,-1.356000,1.746000,273.071000,-0.031000,0.317500,0.162300,0.308000,0.230000,-10.125000,0.002412,0.006350,-0.005690
1764075377899071501,2025-11-25 18:26:17.896,-1.355000,1.756000,273.059000,-0.032100,0.309900,0.160200,0.288000,0.246000,-10.143000,0.001541,0.006682,-0.006861
1764075377924775186,2025-11-25 18:26:17.922,-1.354000,1.764000,273.047000,-0.030000,0.320400,0.160200,0.311000,0.214000,-10.093000,0.001637,0.007378,-0.007689
1764075377949431075,2025-11-25 18:26:17.946,-1.351000,1.773000,273.038000,-0.029300,0.312700,0.159200,0.283000,0.232000,-10.106000,0.001700,0.006787,-0.006646
1764075377975080797,2025-11-25 18:26:17.972,-1.351000,1.781000,273.027000,-0.031100,0.311800,0.160200,0.318000,0.240000,-10.112000,0.001323,0.006042,-0.007789
1764075377998691853,2025-11-25 18:26:17.996,-1.350000,1.790000,273.017000,-0.029200,0.318500,0.163400,0.319000,0.243000,-10.113000,-0.000481,0.006703,-0.007732
1764075378026000705,2025-11-25 18:26:18.023,-1.350000,1.799000,273.005000,-0.032900,0.312800,0.159000,0.353000,0.245000,-10.138000,-0.000084,0.004933,-0.006829
1764075378093660482,2025-11-25 18:26:18.091,-1.349000,1.815000,272.981000,-0.031100,0.311800,0.162300,0.354000,0.233000,-10.122000,0.000722,0.003365,-0.006744
1764075378102946241,2025-11-25 18:26:18.100,-1.351000,1.819000,272.970000,-0.032900,0.314700,0.163300,0.326000,0.244000,-10.112000,-0.001110,0.002592,-0.007806
1764075378127400649,2025-11-25 18:26:18.123,-1.351000,1.824000,272.958000,-0.032000,0.312800,0.163300,0.314000,0.242000,-10.149000,-0.000562,0.001289,-0.007970
1764075378148459519,2025-11-25 18:26:18.145,-1.352000,1.826000,272.947000,-0.032000,0.315600,0.156900,0.348000,0.229000,-10.140000,0.000797,0.000634,-0.007466
1764075378176478390,2025-11-25 18:26:18.173,-1.353000,1.825000,272.936000,-0.031000,0.315600,0.163300,0.330000,0.254000,-10.101000,-0.000908,-0.000549,-0.007792
1764075378199962019,2025-11-25 18:26:18.197,-1.356000,1.824000,272.925000,-0.032100,0.308900,0.163400,0.365000,0.228000,-10.098000,-0.001515,-0.001855,-0.006766
1764075378224068334,2025-11-25 18:26:18.221,-1.359000,1.821000,272.914000,-0.029300,0.312700,0.162400,0.317000,0.246000,-10.130000,-0.000903,-0.002036,-0.006180
1764075378249829112,2025-11-25 18:26:18.247,-1.361000,1.817000,272.905000,-0.034700,0.312800,0.164200,0.352000,0.255000,-10.098000,-0.001729,-0.002812,-0.008833
1764075378274846686,2025-11-25 18:26:18.272,-1.363000,1.810000,272.894000,-0.031100,0.311800,0.163400,0.324000,0.235000,-10.126000,-0.000515,-0.003779,-0.005846
1764075378299858630,2025-11-25 18:26:18.297,-1.365000,1.804000,272.883000,-0.029300,0.313600,0.141200,0.317000,0.244000,-10.119000,-0.000543,-0.005857,-0.006599
