Timestamp,Time,Roll,Pitch,Yaw,Velocity_Increment_X,Velocity_Increment_Y,Velocity_Increment_Z,Acc_X,Acc_Y,Acc_Z,Gyro_X,Gyro_Y,Gyro_Z,Mag_X,Mag_Y,Mag_Z,Pressure
1764075354588964441,2025-11-25 18:25:54.583,0.456085,1.008925,276.418121,0.012379,0.008644,0.978249,0.107858,0.190356,9.769134,0.002331,-0.002064,0.010931,0.250777,-0.640553,-1.195633,100315.0000
1764075354693446478,2025-11-25 18:25:54.683,0.468321,1.035262,276.370354,0.014212,0.008729,0.978852,0.179319,0.018448,9.802508,0.002221,-0.001915,0.008162,0.251736,-0.642917,-1.194648,100307.0000
1764075354793336015,2025-11-25 18:25:54.783,0.485980,1.051945,276.324135,0.015276,0.009882,0.978588,0.158935,0.100107,9.779659,0.007230,-0.000875,0.014005,0.251725,-0.642002,-1.196588,100310.0000
1764075354887319829,2025-11-25 18:25:54.883,0.494714,1.050508,276.279320,0.015478,0.010792,0.978552,0.119323,0.180702,9.768508,-0.002679,0.001922,0.005955,0.247901,-0.640068,-1.194635,100316.0000
1764075354986312959,2025-11-25 18:25:54.983,0.492589,1.036798,276.231659,0.015001,0.010715,0.978448,0.174963,0.003317,9.793745,0.003107,0.001812,0.012119,0.249812,-0.641981,-1.195116,100314.0000
1764075355129610626,2025-11-25 18:25:55.088,0.480756,1.022340,276.181969,0.014260,0.010870,0.978534,0.111392,0.196372,9.763008,-0.003726,0.003411,0.012573,0.247891,-0.641979,-1.194606,100310.0000
1764075355203828811,2025-11-25 18:25:55.188,0.469333,1.011068,276.132019,0.013567,0.009831,0.978718,0.136255,0.068309,9.803833,0.001314,-0.000858,0.007889,0.247383,-0.642052,-1.197968,100311.0000
1764075355292393218,2025-11-25 18:25:55.283,0.460065,1.005892,276.083656,0.013332,0.009499,0.978914,0.148123,0.035137,9.790519,-0.000352,0.002983,0.009123,0.247395,-0.641077,-1.197020,100314.0000
1764075355391601292,2025-11-25 18:25:55.383,0.458164,1.010504,276.036369,0.013411,0.009937,0.978516,0.107748,0.188892,9.781238,0.003069,-0.004073,0.007654,0.248832,-0.642503,-1.197020,100312.0000
1764075355500818144,2025-11-25 18:25:55.484,0.461220,1.019633,275.988640,0.013957,0.009020,0.978635,0.184394,0.008117,9.810797,-0.001599,-0.003809,0.007043,0.244999,-0.641535,-1.195533,100309.0000
1764075355594819551,2025-11-25 18:25:55.583,0.460833,1.024960,275.942886,0.014259,0.009587,0.978683,0.110778,0.142183,9.758032,0.003226,0.001794,0.012716,0.244068,-0.641458,-1.191668,100307.0000
1764075355691392847,2025-11-25 18:25:55.683,0.462333,1.028286,275.902069,0.013785,0.009668,0.978689,0.131886,0.130637,9.792252,0.001877,-0.005977,0.001912,0.241149,-0.640139,-1.196461,100311.0000
1764075355792456588,2025-11-25 18:25:55.783,0.465958,1.029732,275.858200,0.014189,0.009285,0.978077,0.163873,-0.008625,9.789719,0.004475,0.001493,0.008184,0.243551,-0.640139,-1.196978,100312.0000
1764075355892183125,2025-11-25 18:25:55.883,0.466350,1.029351,275.809402,0.014002,0.009827,0.977657,0.109928,0.195762,9.762706,-0.001087,-0.002998,0.011968,0.243081,-0.642468,-1.194046,100311.0000
1764075355992694255,2025-11-25 18:25:55.983,0.475038,1.025292,275.758965,0.014164,0.009607,0.977976,0.160964,0.052452,9.798878,0.004711,0.000375,0.007519,0.241130,-0.643961,-1.196403,100301.0000
1764075356101770088,2025-11-25 18:25:56.093,0.477944,1.019912,275.708511,0.013862,0.010161,0.978549,0.143688,0.083337,9.775553,0.000531,0.003041,0.013752,0.242588,-0.642501,-1.195483,100309.0000
1764075356197656366,2025-11-25 18:25:56.184,0.476328,1.016668,275.660698,0.013155,0.010964,0.979064,0.106677,0.204969,9.787411,0.006580,-0.004916,0.008293,0.241132,-0.642070,-1.197395,100307.0000
1764075356311400643,2025-11-25 18:25:56.285,0.465624,1.023677,275.612549,0.013086,0.010306,0.979231,0.172422,-0.007496,9.811584,-0.002136,0.000095,0.006424,0.241149,-0.642497,-1.194981,100312.0000
1764075356426373958,2025-11-25 18:25:56.389,0.456383,1.040074,275.564842,0.013408,0.009885,0.979279,0.115013,0.149368,9.759505,-0.000938,-0.004881,0.012560,0.239218,-0.642994,-1.195426,100307.0000
1764075356515520421,2025-11-25 18:25:56.498,0.444062,1.055843,275.522087,0.014727,0.009281,0.978763,0.156192,0.115567,9.796620,-0.005231,-0.001074,0.008872,0.239215,-0.642058,-1.196404,100307.0000
1764075356604901032,2025-11-25 18:25:56.586,0.444460,1.059860,275.476692,0.015918,0.008555,0.978371,0.186221,-0.001081,9.785400,0.003511,0.000748,0.009065,0.237771,-0.643010,-1.195886,100316.0000
1764075356695347606,2025-11-25 18:25:56.683,0.450746,1.044960,275.428024,0.015999,0.009517,0.978038,0.136265,0.193931,9.762958,0.004865,0.002202,0.012361,0.238741,-0.642040,-1.195434,100305.0000
1764075356790256828,2025-11-25 18:25:56.783,0.461397,1.014299,275.377151,0.015143,0.010169,0.978098,0.156782,0.059521,9.797064,0.003021,0.004894,0.005202,0.235855,-0.641108,-1.195887,100311.0000
1764075356892912884,2025-11-25 18:25:56.885,0.467928,0.987349,275.326691,0.013356,0.010105,0.978047,0.125313,0.068086,9.766531,0.003451,0.004858,0.014114,0.236800,-0.643980,-1.196339,100316.0000
1764075356990396699,2025-11-25 18:25:56.983,0.468005,0.974280,275.279083,0.012028,0.010963,0.978208,0.094454,0.201359,9.768195,-0.003281,0.003071,0.006521,0.235869,-0.642958,-1.192969,100303.0000
1764075357087226828,2025-11-25 18:25:57.083,0.458762,0.986675,275.234589,0.011619,0.009652,0.978426,0.149996,-0.005853,9.809323,0.000946,-0.008745,0.005901,0.236314,-0.644938,-1.196317,100303.0000
1764075357187168939,2025-11-25 18:25:57.183,0.445518,1.018331,275.190598,0.012221,0.009101,0.978764,0.127395,0.124476,9.770260,-0.001973,-0.006631,0.010538,0.236331,-0.645364,-1.193903,100308.0000
1764075357301481569,2025-11-25 18:25:57.283,0.447895,1.056322,275.141792,0.014025,0.008719,0.978826,0.157580,0.133892,9.803864,0.004169,-0.009020,0.007444,0.234394,-0.643991,-1.196303,100301.0000
1764075357385752161,2025-11-25 18:25:57.383,0.457940,1.084954,275.090355,0.015670,0.008579,0.978948,0.189530,0.006334,9.801175,-0.001057,-0.002036,0.013813,0.231032,-0.643518,-1.195779,100309.0000
1764075357487041050,2025-11-25 18:25:57.484,0.472177,1.086512,275.036842,0.016438,0.010124,0.978950,0.158949,0.213858,9.781912,0.001519,-0.001576,0.012791,0.231513,-0.643516,-1.195786,100311.0000
1764075357586512439,2025-11-25 18:25:57.583,0.481827,1.067178,274.985062,0.016300,0.010828,0.978909,0.178716,0.043963,9.801031,-0.000337,0.005373,0.005682,0.231038,-0.643030,-1.195305,100318.0000
1764075357686350087,2025-11-25 18:25:57.683,0.481796,1.037089,274.938820,0.014933,0.010954,0.978468,0.136865,0.098772,9.773379,0.003905,0.008390,0.013309,0.232476,-0.642567,-1.196297,100310.0000
1764075357787354513,2025-11-25 18:25:57.783,0.468074,1.003377,274.899147,0.013549,0.010669,0.978228,0.114190,0.165193,9.796599,-0.000770,0.003453,0.005183,0.231522,-0.643963,-1.194335,100314.0000
1764075357887918068,2025-11-25 18:25:57.883,0.455782,0.981306,274.852470,0.012598,0.009093,0.977922,0.147156,-0.013196,9.781192,-0.003013,0.001757,0.008914,0.230556,-0.642565,-1.195787,100301.0000
1764075357985712050,2025-11-25 18:25:57.983,0.446000,0.979507,274.802658,0.011450,0.009177,0.977524,0.084091,0.205462,9.764028,0.003033,-0.001516,0.011565,0.231037,-0.642563,-1.195794,100308.0000
1764075358099564957,2025-11-25 18:25:58.085,0.444671,0.995804,274.751923,0.011988,0.008661,0.978010,0.156042,0.025089,9.802432,-0.000320,-0.007473,0.004621,0.227189,-0.643048,-1.195248,100311.0000
1764075358196188420,2025-11-25 18:25:58.184,0.455994,1.028670,274.694656,0.012466,0.009510,0.978504,0.121688,0.114279,9.771220,0.009161,-0.003453,0.012650,0.225745,-0.644000,-1.194731,100312.0000
1764075358286293790,2025-11-25 18:25:58.282,0.466292,1.062567,274.646935,0.014045,0.010063,0.979237,0.165466,0.144564,9.788901,0.000545,-0.007936,0.003199,0.226718,-0.642552,-1.194286,100311.0000
1764075358387202920,2025-11-25 18:25:58.383,0.468711,1.086011,274.600296,0.015737,0.009971,0.979740,0.196085,0.012621,9.797440,0.008231,-0.005388,0.011363,0.229124,-0.642541,-1.194321,100306.0000
1764075358485609920,2025-11-25 18:25:58.482,0.472813,1.091481,274.555244,0.016429,0.010364,0.979325,0.136570,0.202698,9.766695,-0.003383,0.002774,0.005702,0.226706,-0.644940,-1.194249,100316.0000
1764075358587576846,2025-11-25 18:25:58.583,0.474168,1.073238,274.508049,0.016365,0.009532,0.979347,0.183195,0.001842,9.802635,0.004752,0.004287,0.008392,0.225257,-0.643077,-1.196183,100309.0000
1764075358685368605,2025-11-25 18:25:58.683,0.475086,1.039986,274.456810,0.014851,0.009917,0.978515,0.134662,0.159114,9.748736,-0.001735,0.004265,0.014973,0.225735,-0.644498,-1.195686,100311.0000
1764075358787752642,2025-11-25 18:25:58.783,0.480545,1.009440,274.404320,0.013134,0.009900,0.978085,0.136249,0.105524,9.816299,0.004463,0.000734,0.007689,0.224303,-0.644474,-1.194221,100311.0000
1764075358886487605,2025-11-25 18:25:58.883,0.483741,0.993947,274.352470,0.012277,0.009655,0.977885,0.132890,0.058367,9.759570,-0.000604,-0.000928,0.010070,0.223358,-0.642547,-1.193273,100303.0000
1764075358985436327,2025-11-25 18:25:58.982,0.480872,0.996701,274.303757,0.011255,0.010803,0.978010,0.110400,0.180599,9.782766,0.001806,-0.007383,0.008737,0.222865,-0.642580,-1.194710,100313.0000
1764075359086292234,2025-11-25 18:25:59.083,0.477291,1.018784,274.256271,0.012261,0.010032,0.977862,0.161293,-0.002101,9.771987,-0.001019,-0.006767,0.009974,0.222370,-0.644503,-1.195155,100311.0000
1764075359186512105,2025-11-25 18:25:59.183,0.465700,1.047450,274.209602,0.013496,0.010264,0.978058,0.104892,0.203163,9.775741,0.000358,-0.003510,0.010110,0.221431,-0.643033,-1.193237,100309.0000
1764075359285960216,2025-11-25 18:25:59.283,0.456044,1.067360,274.163750,0.015123,0.009218,0.978627,0.180495,0.000814,9.797733,-0.002990,0.000315,0.006930,0.219492,-0.642137,-1.195631,100305.0000
1764075359385169919,2025-11-25 18:25:59.382,0.453267,1.069044,274.115135,0.015690,0.009233,0.978427,0.132325,0.156196,9.761203,0.005483,-0.003254,0.011929,0.219478,-0.644058,-1.196082,100309.0000
1764075359485569771,2025-11-25 18:25:59.482,0.455846,1.060511,274.065781,0.015480,0.009201,0.979421,0.192153,0.054206,9.823683,-0.000790,0.000925,0.004918,0.218544,-0.643046,-1.193195,100312.0000
1764075359585645493,2025-11-25 18:25:59.583,0.463027,1.044021,274.014496,0.014139,0.009386,0.979372,0.130288,0.118783,9.771706,0.002725,0.001666,0.012652,0.219470,-0.645024,-1.196549,100314.0000
1764075359685251160,2025-11-25 18:25:59.682,0.471534,1.032914,273.967819,0.013442,0.009956,0.979091,0.146720,0.095186,9.803524,0.004511,0.001185,0.005755,0.218053,-0.643546,-1.194143,100305.0000
1764075359785801919,2025-11-25 18:25:59.782,0.479643,1.032026,273.923042,0.013118,0.009742,0.978568,0.129457,0.069874,9.761632,0.001622,0.001756,0.011013,0.218033,-0.645955,-1.195069,100309.0000
1764075359886628326,2025-11-25 18:25:59.883,0.481813,1.035184,273.879417,0.013480,0.010296,0.978088,0.134585,0.150975,9.792488,0.004418,-0.002228,0.007463,0.216123,-0.644510,-1.194100,100307.0000
1764075359985814475,2025-11-25 18:25:59.982,0.481340,1.037308,273.829865,0.013685,0.009717,0.977303,0.134928,0.016269,9.752747,0.002464,-0.001530,0.014205,0.217091,-0.642605,-1.194625,100305.0000
1764075360086506178,2025-11-25 18:26:00.083,0.479491,1.035300,273.780434,0.013751,0.010272,0.977376,0.116181,0.184514,9.785215,-0.003481,-0.003319,0.007260,0.214199,-0.644519,-1.194071,100307.0000
1764075360185994067,2025-11-25 18:26:00.183,0.472359,1.035073,273.729668,0.013849,0.009792,0.978019,0.172104,-0.004464,9.788945,-0.000017,0.000406,0.010040,0.214198,-0.643106,-1.195056,100312.0000
1764075360286184808,2025-11-25 18:26:00.283,0.471123,1.040526,273.678017,0.013245,0.010160,0.978581,0.110098,0.197345,9.789691,0.002641,-0.000747,0.010878,0.214676,-0.643114,-1.195545,100303.0000
1764075360386219974,2025-11-25 18:26:00.383,0.471149,1.046691,273.631714,0.013738,0.009720,0.979452,0.147973,0.006131,9.810256,-0.001460,-0.000246,0.007566,0.213236,-0.644523,-1.194057,100310.0000
1764075360486537474,2025-11-25 18:26:00.483,0.465159,1.054841,273.587753,0.014176,0.010169,0.979150,0.111192,0.173973,9.764216,-0.001278,0.002607,0.010410,0.211777,-0.643158,-1.196946,100314.0000
1764075360586325067,2025-11-25 18:26:00.583,0.458835,1.060403,273.541138,0.015041,0.009919,0.979172,0.173270,0.034679,9.817176,-0.001628,0.002739,0.008973,0.211779,-0.646451,-1.194488,100303.0000
1764075360685235659,2025-11-25 18:26:00.682,0.458533,1.056327,273.492531,0.014693,0.009237,0.978639,0.105507,0.140058,9.759214,0.005787,0.004613,0.009967,0.211302,-0.645030,-1.194984,100307.0000
1764075360786990511,2025-11-25 18:26:00.783,0.457673,1.047748,273.440002,0.014389,0.009530,0.978260,0.173655,0.073143,9.815541,0.004666,-0.000090,0.006299,0.211770,-0.644591,-1.196924,100315.0000
1764075360886291937,2025-11-25 18:26:00.883,0.460185,1.034137,273.387596,0.013799,0.009270,0.978190,0.123148,0.116637,9.757210,0.000103,0.002049,0.014308,0.209846,-0.646012,-1.195911,100307.0000
1764075360985228881,2025-11-25 18:26:00.982,0.471371,1.024463,273.338066,0.013350,0.009491,0.977970,0.142193,0.110929,9.795314,0.003329,-0.000801,0.005058,0.210849,-0.643070,-1.192599,100302.0000
1764075361091289659,2025-11-25 18:26:01.085,0.485082,1.023637,273.292931,0.012948,0.009521,0.978152,0.119111,0.065286,9.775214,0.002835,-0.002944,0.012820,0.208402,-0.644606,-1.196874,100309.0000
1764075361185427159,2025-11-25 18:26:01.183,0.495280,1.030092,273.248680,0.012929,0.010243,0.978635,0.127325,0.176495,9.796351,0.002347,-0.005190,0.005528,0.210339,-0.645034,-1.194970,100311.0000
1764075361286899955,2025-11-25 18:26:01.283,0.497660,1.045623,273.203644,0.013456,0.010259,0.978578,0.148937,0.012624,9.778160,-0.000212,-0.001443,0.010556,0.208892,-0.645051,-1.195430,100309.0000
1764075361385452937,2025-11-25 18:26:01.382,0.488574,1.062759,273.155258,0.014139,0.011226,0.978910,0.136211,0.214056,9.785937,-0.000518,-0.004440,0.009302,0.204099,-0.643609,-1.193937,100309.0000
1764075361486090714,2025-11-25 18:26:01.482,0.476886,1.073744,273.105659,0.014903,0.009945,0.978957,0.203100,0.006578,9.800426,-0.002015,0.000808,0.010250,0.205041,-0.644601,-1.195862,100309.0000
1764075361585794696,2025-11-25 18:26:01.582,0.460493,1.071484,273.054688,0.015409,0.009956,0.978746,0.138037,0.168317,9.771097,-0.001628,0.001749,0.009435,0.205048,-0.643168,-1.195884,100307.0000
1764075361685266492,2025-11-25 18:26:01.682,0.458769,1.058153,273.009125,0.015502,0.008498,0.978830,0.181804,0.005759,9.804270,0.005212,-0.001400,0.007025,0.205542,-0.646905,-1.191981,100310.0000
1764075361786282344,2025-11-25 18:26:01.783,0.459078,1.037334,272.962135,0.015013,0.008627,0.978246,0.097549,0.169096,9.749417,0.001773,0.004717,0.011104,0.205999,-0.645552,-1.195861,100307.0000
1764075361885648622,2025-11-25 18:26:01.883,0.469875,1.009419,272.913910,0.013732,0.008929,0.978082,0.153920,0.008056,9.796184,0.002106,0.004997,0.008807,0.203126,-0.646469,-1.193397,100301.0000
1764075361986770510,2025-11-25 18:26:01.983,0.477610,0.993824,272.863052,0.012257,0.009728,0.977829,0.094725,0.181224,9.744617,-0.000551,0.002919,0.013254,0.205038,-0.646024,-1.195359,100314.0000
1764075362085874010,2025-11-25 18:26:02.083,0.483258,0.997976,272.811935,0.011740,0.010540,0.977810,0.134693,0.074610,9.813855,0.002829,0.000270,0.004352,0.202645,-0.645059,-1.194375,100311.0000
1764075362186020121,2025-11-25 18:26:02.182,0.485352,1.017949,272.759857,0.011999,0.010568,0.978417,0.092891,0.147873,9.761215,-0.000522,-0.005189,0.013560,0.200705,-0.646521,-1.195287,100309.0000
1764075362285906769,2025-11-25 18:26:02.283,0.482002,1.049374,272.715057,0.012823,0.010197,0.979068,0.161392,0.086962,9.816079,-0.000351,-0.005628,0.007926,0.201189,-0.646041,-1.195302,100314.0000
1764075362386120566,2025-11-25 18:26:02.382,0.477070,1.083528,272.668846,0.014299,0.009772,0.978966,0.122691,0.104944,9.762321,-0.001553,-0.007259,0.011564,0.201680,-0.643183,-1.195834,100307.0000
1764075362486759455,2025-11-25 18:26:02.483,0.475440,1.104391,272.621742,0.015700,0.009519,0.979198,0.164018,0.110645,9.806523,0.002708,-0.005500,0.009643,0.201709,-0.642166,-1.192960,100307.0000
1764075362586446177,2025-11-25 18:26:02.583,0.480609,1.102595,272.571823,0.016382,0.009597,0.978814,0.147213,0.067877,9.759687,0.004998,-0.000657,0.013417,0.198316,-0.645545,-1.193822,100316.0000
1764075362686929954,2025-11-25 18:26:02.683,0.482678,1.079165,272.522247,0.016210,0.010452,0.978526,0.138936,0.148090,9.811155,0.005613,0.004578,0.005509,0.199292,-0.645033,-1.192400,100309.0000
1764075362786518640,2025-11-25 18:26:02.783,0.479838,1.039232,272.471207,0.015050,0.010156,0.978745,0.130641,0.045859,9.770090,-0.002089,0.011738,0.015185,0.199270,-0.645561,-1.194799,100307.0000
1764075362885590751,2025-11-25 18:26:02.882,0.474293,1.005234,272.423836,0.013723,0.010691,0.978380,0.120612,0.153304,9.785112,-0.005919,0.004598,0.006180,0.196870,-0.643672,-1.195274,100307.0000
1764075362985627973,2025-11-25 18:26:02.982,0.463947,0.984887,272.379585,0.012078,0.009520,0.978075,0.104840,0.036606,9.762539,0.002596,-0.000821,0.010102,0.196388,-0.644619,-1.194771,100309.0000
1764075363085454862,2025-11-25 18:26:03.082,0.461787,0.984069,272.332932,0.011102,0.009394,0.977893,0.102599,0.155280,9.795048,0.004037,-0.002031,0.005252,0.195888,-0.646085,-1.196186,100309.0000
1764075363186270417,2025-11-25 18:26:03.182,0.469752,1.008400,272.283623,0.011900,0.008537,0.977884,0.169332,0.000789,9.780576,0.003949,-0.005091,0.009611,0.196862,-0.644637,-1.195741,100302.0000
1764075363286316454,2025-11-25 18:26:03.283,0.483085,1.047239,272.235199,0.012720,0.009609,0.978186,0.158098,0.188867,9.778626,0.004000,-0.010356,0.008240,0.194912,-0.646597,-1.197609,100306.0000
1764075363386553454,2025-11-25 18:26:03.382,0.491846,1.086658,272.187149,0.014792,0.010075,0.978988,0.159775,0.017307,9.792456,-0.003889,-0.003809,0.008581,0.193014,-0.645122,-1.195195,100312.0000
1764075363486636750,2025-11-25 18:26:03.483,0.493984,1.111240,272.140923,0.016459,0.011461,0.979346,0.154864,0.204831,9.783439,0.002313,-0.006406,0.010252,0.193498,-0.644642,-1.195210,100310.0000
1764075363585819787,2025-11-25 18:26:03.582,0.483655,1.107806,272.095360,0.017432,0.010550,0.979610,0.204815,0.019072,9.799380,0.000855,0.002966,0.008874,0.192541,-0.645104,-1.194226,100307.0000
1764075363686648306,2025-11-25 18:26:03.682,0.469348,1.081140,272.048973,0.016479,0.010198,0.978822,0.114640,0.171512,9.787090,-0.001695,0.005848,0.008836,0.191579,-0.646521,-1.193227,100307.0000
1764075363786737213,2025-11-25 18:26:03.783,0.456979,1.031825,272.001953,0.014859,0.008681,0.978380,0.163850,-0.014027,9.802445,-0.002347,0.004692,0.006091,0.191093,-0.643708,-1.195670,100312.0000
1764075363885450972,2025-11-25 18:26:03.882,0.458440,0.993445,271.958160,0.012443,0.008611,0.977741,0.082613,0.175469,9.762017,0.006456,0.003608,0.012303,0.189652,-0.644649,-1.194671,100312.0000
1764075363985396268,2025-11-25 18:26:03.983,0.474564,0.977116,271.913322,0.011230,0.008658,0.977971,0.119754,0.024595,9.795157,0.003428,-0.001667,0.005359,0.193010,-0.646545,-1.194692,100309.0000
1764075364085689898,2025-11-25 18:26:04.082,0.492059,0.989757,271.864853,0.011199,0.010000,0.978120,0.087434,0.144318,9.756853,0.002929,-0.002796,0.013889,0.191571,-0.645128,-1.195174,100306.0000
1764075364185897009,2025-11-25 18:26:04.183,0.497405,1.025014,271.817047,0.012313,0.010836,0.978794,0.159283,0.071802,9.821152,-0.003344,-0.007819,0.005379,0.189632,-0.645645,-1.196582,100314.0000
1764075364286416009,2025-11-25 18:26:04.283,0.493090,1.065229,271.768654,0.013841,0.011009,0.978929,0.129062,0.130575,9.758092,0.004486,-0.007895,0.010431,0.187735,-0.643225,-1.194665,100306.0000
1764075364386311453,2025-11-25 18:26:04.383,0.483177,1.093371,271.725128,0.015825,0.010781,0.979003,0.181227,0.084552,9.816175,-0.001466,-0.007543,0.004742,0.188227,-0.644137,-1.192731,100306.0000
1764075364485579472,2025-11-25 18:26:04.482,0.470551,1.099787,271.681343,0.016763,0.009939,0.978710,0.164242,0.100112,9.781701,0.002417,-0.003691,0.012092,0.186286,-0.644187,-1.194629,100316.0000
1764075364586192398,2025-11-25 18:26:04.582,0.463398,1.079438,271.639343,0.016215,0.009589,0.978328,0.162276,0.109874,9.801485,-0.001179,0.002980,0.008791,0.187235,-0.647049,-1.194599,100309.0000
1764075364686558787,2025-11-25 18:26:04.683,0.465850,1.048910,271.592522,0.015083,0.008990,0.978384,0.123042,0.063039,9.763981,0.001577,0.006412,0.013826,0.187239,-0.644681,-1.195599,100308.0000
1764075364786150916,2025-11-25 18:26:04.783,0.471763,1.017623,271.547363,0.013424,0.009146,0.978777,0.116891,0.140029,9.808359,0.003569,0.008475,0.004349,0.184842,-0.645139,-1.194112,100308.0000
1764075364885266120,2025-11-25 18:26:04.882,0.479209,1.001387,271.502785,0.012465,0.009062,0.979048,0.124096,0.026349,9.783225,0.002735,-0.000223,0.012375,0.184819,-0.647558,-1.195519,100311.0000
1764075364985527027,2025-11-25 18:26:04.983,0.491090,1.002405,271.451797,0.012032,0.010059,0.978914,0.106773,0.174008,9.802624,0.007204,-0.004986,0.005642,0.183875,-0.646098,-1.194083,100309.0000
1764075365085750416,2025-11-25 18:26:05.083,0.499908,1.019145,271.403358,0.013027,0.010054,0.978582,0.146391,0.032487,9.765798,-0.000300,-0.002016,0.009184,0.183397,-0.643265,-1.195564,100311.0000
1764075365185913601,2025-11-25 18:26:05.183,0.500518,1.039021,271.358711,0.013640,0.010796,0.978058,0.116976,0.182659,9.793539,0.002783,-0.005642,0.009586,0.182919,-0.645615,-1.193594,100308.0000
1764075365286199120,2025-11-25 18:26:05.283,0.494764,1.055064,271.309944,0.014609,0.010530,0.978274,0.165368,0.016712,9.790249,-0.000576,-0.001186,0.007325,0.180491,-0.644742,-1.196943,100315.0000
1764075365385898249,2025-11-25 18:26:05.382,0.482266,1.058752,271.264786,0.015042,0.010814,0.978321,0.132787,0.203054,9.792931,-0.000282,-0.001792,0.009263,0.182916,-0.644680,-1.194571,100311.0000
1764075365485321082,2025-11-25 18:26:05.482,0.469547,1.053275,271.220520,0.014980,0.009314,0.978550,0.171583,-0.012336,9.797945,0.003268,0.000078,0.008766,0.181469,-0.644696,-1.195032,100310.0000
1764075365585361767,2025-11-25 18:26:05.582,0.464004,1.046933,271.170448,0.014381,0.008900,0.978604,0.090371,0.181510,9.780966,0.003785,-0.002210,0.008878,0.181959,-0.645141,-1.193588,100309.0000
1764075365686174453,2025-11-25 18:26:05.683,0.469188,1.038545,271.128044,0.013869,0.008259,0.978782,0.168018,0.001379,9.806288,-0.000452,-0.002422,0.007676,0.180043,-0.644185,-1.193092,100309.0000
1764075365786483508,2025-11-25 18:26:05.783,0.478390,1.033398,271.085320,0.013322,0.009511,0.979041,0.109224,0.196893,9.768449,-0.000754,-0.000311,0.010414,0.178093,-0.644732,-1.195945,100309.0000
1764075365885600508,2025-11-25 18:26:05.882,0.494581,1.036724,271.041023,0.013498,0.009713,0.978783,0.180026,0.024887,9.795173,0.008812,-0.003560,0.008161,0.179063,-0.646120,-1.194012,100316.0000
1764075365985532452,2025-11-25 18:26:05.982,0.502273,1.043412,270.993233,0.013425,0.011119,0.978255,0.127110,0.167825,9.775845,0.000678,-0.000489,0.012044,0.177612,-0.646147,-1.194953,100303.0000
1764075366085422212,2025-11-25 18:26:06.082,0.500251,1.048445,270.943939,0.014365,0.011211,0.978274,0.166962,0.052040,9.807516,0.004327,-0.001295,0.008052,0.176679,-0.645602,-1.191576,100314.0000
1764075366185249323,2025-11-25 18:26:06.182,0.487884,1.048838,270.898300,0.014197,0.011106,0.978153,0.121785,0.164051,9.756008,-0.003535,-0.003476,0.009974,0.179546,-0.648943,-1.192049,100311.0000
1764075366285445249,2025-11-25 18:26:06.282,0.472425,1.040944,270.851517,0.014356,0.009624,0.978383,0.163555,0.040146,9.811998,0.000887,-0.001995,0.004946,0.176658,-0.646131,-1.193976,100308.0000
1764075366386142434,2025-11-25 18:26:06.383,0.457429,1.030893,270.804352,0.013960,0.008764,0.978246,0.112117,0.113438,9.767368,0.000151,0.000402,0.011651,0.176184,-0.644700,-1.193991,100309.0000
1764075366485579156,2025-11-25 18:26:06.482,0.456583,1.027032,270.757545,0.013744,0.008578,0.978889,0.162697,0.091549,9.812916,0.001265,-0.003037,0.006433,0.175710,-0.644681,-1.193021,100308.0000
1764075366585935174,2025-11-25 18:26:06.582,0.465756,1.031338,270.708176,0.013118,0.008620,0.978951,0.107003,0.096774,9.755708,0.004634,-0.000565,0.011834,0.173308,-0.643270,-1.193489,100300.0000
1764075366686212045,2025-11-25 18:26:06.682,0.476810,1.040202,270.664803,0.013505,0.009818,0.979040,0.172744,0.096342,9.812302,0.002881,-0.004313,0.008005,0.174735,-0.644249,-1.194940,100308.0000
1764075366786337748,2025-11-25 18:26:06.783,0.490292,1.048512,270.619682,0.014211,0.010178,0.979114,0.126822,0.082988,9.760696,0.005389,-0.003446,0.010932,0.172809,-0.643790,-1.195400,100308.0000
1764075366885250489,2025-11-25 18:26:06.882,0.498542,1.054906,270.573601,0.014494,0.011191,0.978844,0.144372,0.153293,9.811967,-0.002862,-0.002345,0.003481,0.172341,-0.644229,-1.193460,100307.0000
1764075366986387859,2025-11-25 18:26:06.983,0.496580,1.050210,270.528069,0.014951,0.010886,0.978289,0.144441,0.056297,9.767648,0.001046,-0.000468,0.011151,0.170427,-0.642794,-1.192972,100312.0000
1764075367085474896,2025-11-25 18:26:07.082,0.484651,1.045954,270.482849,0.014246,0.010803,0.978215,0.141316,0.170400,9.807330,-0.002601,-0.000517,0.008429,0.172810,-0.646615,-1.193430,100309.0000
1764075367185578155,2025-11-25 18:26:07.182,0.470405,1.044410,270.434410,0.013615,0.009624,0.978174,0.134745,0.037250,9.768269,0.000768,0.003054,0.012763,0.172819,-0.644705,-1.193460,100314.0000
1764075367285428711,2025-11-25 18:26:07.282,0.458064,1.046998,270.386841,0.013390,0.009187,0.978282,0.132802,0.168240,9.790305,-0.001216,0.001729,0.006764,0.169919,-0.644281,-1.195350,100309.0000
1764075367385314415,2025-11-25 18:26:07.382,0.455533,1.050805,270.340286,0.013675,0.008378,0.978314,0.163050,-0.008011,9.767856,0.004396,-0.000088,0.009343,0.168475,-0.645232,-1.194833,100311.0000
1764075367485444433,2025-11-25 18:26:07.482,0.464025,1.057735,270.294022,0.013756,0.009220,0.978400,0.136608,0.176913,9.791029,0.002538,-0.000949,0.004806,0.167516,-0.643814,-1.195322,100309.0000
1764075367589290414,2025-11-25 18:26:07.582,0.475563,1.061710,270.247032,0.014627,0.009558,0.978741,0.172553,0.000824,9.788938,0.010413,-0.002354,0.009345,0.170893,-0.644246,-1.193920,100311.0000
1764075367686006433,2025-11-25 18:26:07.682,0.484705,1.055818,270.199608,0.014841,0.010758,0.979175,0.107264,0.194170,9.782226,0.001403,0.001019,0.009404,0.167997,-0.646170,-1.193848,100316.0000
1764075367785744951,2025-11-25 18:26:07.783,0.488886,1.046568,270.153992,0.014848,0.010748,0.979046,0.161394,0.024354,9.806551,0.002540,0.004209,0.009885,0.168965,-0.644265,-1.194373,100303.0000
1764075367886531044,2025-11-25 18:26:07.883,0.478748,1.037595,270.109077,0.013983,0.010713,0.978801,0.109044,0.183601,9.771980,-0.002800,0.000738,0.009987,0.169443,-0.645685,-1.193877,100307.0000
1764075367986628081,2025-11-25 18:26:07.983,0.468494,1.032938,270.064377,0.013358,0.009819,0.978434,0.164477,0.000492,9.801987,-0.003004,0.002509,0.007707,0.167521,-0.645216,-1.193855,100309.0000
1764075368085901470,2025-11-25 18:26:08.083,0.462513,1.029633,270.018410,0.012796,0.009174,0.978024,0.096094,0.165257,9.763578,-0.001147,0.002927,0.010679,0.165094,-0.647169,-1.195235,100309.0000
1764075368186169951,2025-11-25 18:26:08.183,0.465468,1.037805,269.972008,0.012784,0.008625,0.977841,0.172041,0.004520,9.797618,0.005327,0.000902,0.009253,0.167499,-0.647158,-1.195270,100309.0000
1764075368286368118,2025-11-25 18:26:08.283,0.474586,1.051895,269.924522,0.013115,0.009212,0.978124,0.096564,0.162000,9.768024,0.001522,-0.005155,0.012071,0.161745,-0.644775,-1.194259,100307.0000
1764075368386554655,2025-11-25 18:26:08.383,0.479765,1.069175,269.879242,0.013749,0.010132,0.978889,0.156073,0.077463,9.814423,0.005871,-0.003379,0.007775,0.164634,-0.646642,-1.192828,100309.0000
1764075368486333321,2025-11-25 18:26:08.482,0.484276,1.086126,269.836166,0.014702,0.010368,0.979447,0.124681,0.139923,9.772343,-0.003492,-0.001189,0.009154,0.161755,-0.644277,-1.193303,100305.0000
1764075368585873692,2025-11-25 18:26:08.582,0.477247,1.091970,269.793266,0.015543,0.010972,0.979284,0.160328,0.088137,9.814857,0.002063,-0.002946,0.004872,0.161755,-0.644277,-1.193303,100308.0000
1764075368686147895,2025-11-25 18:26:08.682,0.467742,1.086973,269.749298,0.015405,0.009648,0.978892,0.130797,0.086074,9.754238,-0.002152,0.003524,0.012426,0.161759,-0.644267,-1.192822,100307.0000
1764075368786133191,2025-11-25 18:26:08.783,0.463399,1.074771,269.702286,0.014931,0.009286,0.978927,0.144905,0.100230,9.811402,-0.001167,0.002254,0.007234,0.160305,-0.643359,-1.194741,100305.0000
1764075368886057432,2025-11-25 18:26:08.883,0.462723,1.057876,269.653381,0.013761,0.008749,0.978241,0.136628,0.056562,9.772176,0.003325,0.001611,0.014306,0.160303,-0.643836,-1.194734,100307.0000
1764075368985263765,2025-11-25 18:26:08.982,0.471972,1.051637,269.607735,0.013220,0.009380,0.978295,0.119100,0.145295,9.807181,0.003615,0.000240,0.006016,0.161275,-0.643334,-1.193792,100307.0000
1764075369085951191,2025-11-25 18:26:09.082,0.480985,1.049161,269.563477,0.013256,0.009700,0.978136,0.138835,0.054330,9.775101,0.002650,0.001647,0.010965,0.158855,-0.644798,-1.194698,100305.0000
1764075369186029784,2025-11-25 18:26:09.182,0.484433,1.048298,269.522354,0.013084,0.010373,0.978253,0.115028,0.170568,9.796798,0.002279,-0.000633,0.003732,0.160297,-0.645737,-1.194223,100307.0000
1764075369286323636,2025-11-25 18:26:09.283,0.483766,1.051996,269.475967,0.013562,0.010007,0.978242,0.161236,0.006874,9.785333,-0.001813,-0.001236,0.010683,0.157398,-0.648138,-1.194144,100305.0000
1764075369386451284,2025-11-25 18:26:09.382,0.480971,1.056501,269.429703,0.013865,0.010781,0.978307,0.131002,0.179028,9.780558,0.001351,-0.002343,0.008559,0.157883,-0.645768,-1.195150,100309.0000
1764075369486707376,2025-11-25 18:26:09.483,0.473074,1.058182,269.380997,0.013466,0.009513,0.978660,0.153929,0.003773,9.794210,-0.002253,-0.003866,0.009876,0.155958,-0.646722,-1.194626,100312.0000
1764075369585882969,2025-11-25 18:26:09.583,0.474040,1.069296,269.331154,0.013800,0.009701,0.978890,0.102967,0.188266,9.791183,0.003283,-0.003820,0.009108,0.155002,-0.646238,-1.194137,100309.0000
1764075369686123209,2025-11-25 18:26:09.682,0.475890,1.075683,269.282990,0.014243,0.009355,0.978985,0.174506,0.002107,9.801353,-0.001599,-0.003872,0.009930,0.156454,-0.645266,-1.193692,100305.0000
1764075369786234265,2025-11-25 18:26:09.782,0.475694,1.084571,269.238106,0.014456,0.009992,0.978799,0.116099,0.186615,9.775337,0.005838,-0.001614,0.007511,0.153084,-0.645759,-1.193635,100311.0000
1764075369886133154,2025-11-25 18:26:09.883,0.473050,1.087825,269.197433,0.014911,0.010085,0.978602,0.193426,0.015606,9.800073,0.000706,-0.001326,0.004988,0.154518,-0.645305,-1.195107,100312.0000
1764075369985750320,2025-11-25 18:26:09.982,0.473184,1.082978,269.152893,0.014393,0.009977,0.978321,0.107333,0.169178,9.764587,0.002203,0.001457,0.011943,0.155490,-0.644803,-1.194166,100311.0000
1764075370085659765,2025-11-25 18:26:10.082,0.467257,1.065916,269.106400,0.014811,0.009537,0.978332,0.182465,0.008748,9.809110,-0.000391,0.002144,0.006902,0.155971,-0.644801,-1.194173,100307.0000
1764075370186103913,2025-11-25 18:26:10.182,0.472979,1.046037,269.059891,0.014079,0.009354,0.978347,0.114376,0.170700,9.776044,0.002907,0.002513,0.012205,0.154540,-0.643831,-1.193204,100317.0000
1764075370285429654,2025-11-25 18:26:10.282,0.478700,1.031280,269.015854,0.013020,0.009123,0.978809,0.146436,0.066108,9.812653,0.000688,0.001834,0.002763,0.153572,-0.645736,-1.192679,100306.0000
1764075370385318283,2025-11-25 18:26:10.382,0.483242,1.027983,268.968300,0.012012,0.009776,0.978704,0.088047,0.138740,9.765489,0.003827,0.002165,0.010710,0.153096,-0.644783,-1.192687,100319.0000
1764075370485534246,2025-11-25 18:26:10.482,0.485018,1.040437,268.923805,0.012091,0.010700,0.978814,0.159861,0.092789,9.815117,-0.000096,-0.003392,0.005826,0.151159,-0.645768,-1.193606,100314.0000
1764075370586245079,2025-11-25 18:26:10.583,0.484583,1.070585,268.880402,0.012946,0.010511,0.978407,0.118683,0.121848,9.753698,0.003208,-0.010938,0.011629,0.150681,-0.642934,-1.195087,100309.0000
1764075370686362468,2025-11-25 18:26:10.682,0.483737,1.101583,268.838806,0.014355,0.010227,0.978738,0.176593,0.104594,9.803757,0.001899,-0.003696,0.002989,0.148260,-0.646756,-1.194512,100316.0000
1764075370785502561,2025-11-25 18:26:10.782,0.473480,1.113281,268.795670,0.016253,0.009144,0.978603,0.145548,0.078227,9.765858,-0.000467,-0.000592,0.012635,0.149230,-0.644374,-1.195044,100311.0000
1764075370886132727,2025-11-25 18:26:10.883,0.474699,1.108444,268.747131,0.016511,0.009104,0.978733,0.164027,0.099209,9.809369,0.004115,0.004447,0.006098,0.149242,-0.645756,-1.192615,100306.0000
1764075370985917079,2025-11-25 18:26:10.983,0.479990,1.082618,268.699249,0.015508,0.009200,0.978656,0.132294,0.064250,9.763023,-0.001529,0.007453,0.013032,0.148254,-0.646299,-1.195482,100307.0000
1764075371085614172,2025-11-25 18:26:11.082,0.485091,1.048507,268.651192,0.013965,0.010116,0.978669,0.130575,0.158890,9.818011,0.001327,0.001481,0.006678,0.148751,-0.643898,-1.195044,100311.0000
1764075371185971246,2025-11-25 18:26:11.183,0.488379,1.022543,268.605904,0.012748,0.010225,0.978100,0.132905,0.054892,9.762164,-0.004034,0.005935,0.006846,0.148278,-0.643880,-1.194074,100304.0000
1764075371286688653,2025-11-25 18:26:11.283,0.484311,1.015748,268.562149,0.011249,0.010481,0.978477,0.101013,0.160744,9.804202,-0.000420,-0.002712,0.004155,0.146831,-0.642951,-1.195030,100305.0000
1764075371386143171,2025-11-25 18:26:11.383,0.473714,1.027836,268.519188,0.012016,0.009743,0.978302,0.144927,0.025558,9.777391,-0.004010,-0.002122,0.009517,0.147783,-0.645803,-1.194520,100315.0000
1764075371485816523,2025-11-25 18:26:11.483,0.471405,1.054926,268.472679,0.013108,0.010022,0.978390,0.124177,0.168774,9.784468,0.000273,-0.007481,0.007728,0.145392,-0.644361,-1.193543,100309.0000
1764075371586710782,2025-11-25 18:26:11.583,0.470297,1.081469,268.426521,0.015212,0.009161,0.978770,0.174767,0.020900,9.793248,0.000906,-0.004685,0.011082,0.143941,-0.644387,-1.194484,100307.0000
1764075371685747505,2025-11-25 18:26:11.682,0.472223,1.096104,268.379593,0.015613,0.010124,0.978588,0.152973,0.196775,9.806416,0.005113,-0.001291,0.007795,0.142980,-0.644859,-1.193981,100309.0000
1764075371785460153,2025-11-25 18:26:11.782,0.474672,1.093420,268.334511,0.015907,0.009956,0.978597,0.180485,0.001841,9.796588,-0.002643,0.003757,0.009387,0.144901,-0.644861,-1.194491,100309.0000
1764075371886571838,2025-11-25 18:26:11.883,0.474858,1.071342,268.288666,0.015078,0.010438,0.978294,0.105476,0.207059,9.766250,-0.001171,0.003085,0.010030,0.146352,-0.643421,-1.194535,100313.0000
1764075371985246745,2025-11-25 18:26:11.982,0.473176,1.046063,268.242004,0.013808,0.009716,0.978862,0.164910,-0.001152,9.798691,-0.002527,0.006664,0.005259,0.143937,-0.646755,-1.193485,100314.0000
1764075372085455764,2025-11-25 18:26:12.082,0.470789,1.029876,268.196579,0.012917,0.009542,0.978549,0.099132,0.167177,9.763825,0.004002,-0.001411,0.011436,0.142972,-0.644880,-1.194944,100310.0000
1764075372186395338,2025-11-25 18:26:12.183,0.470583,1.029523,268.149353,0.012293,0.009431,0.979004,0.134786,-0.003111,9.808350,-0.000103,-0.001878,0.004476,0.139616,-0.642506,-1.194931,100308.0000
1764075372286315171,2025-11-25 18:26:12.283,0.477758,1.043685,268.098457,0.012515,0.009901,0.978612,0.107128,0.177268,9.777499,0.004691,-0.002524,0.013094,0.140090,-0.644882,-1.194420,100306.0000
1764075372386262245,2025-11-25 18:26:12.383,0.488550,1.068144,268.051910,0.013641,0.009721,0.978365,0.182516,0.028747,9.813347,0.003585,-0.006308,0.008399,0.139155,-0.642457,-1.192517,100309.0000
1764075372485656504,2025-11-25 18:26:12.482,0.491780,1.085818,268.005760,0.014975,0.010637,0.978111,0.127987,0.176473,9.768114,-0.000556,-0.004203,0.009564,0.140103,-0.645319,-1.192487,100307.0000
1764075372586116615,2025-11-25 18:26:12.583,0.486959,1.085953,267.960541,0.016096,0.010851,0.978360,0.183551,0.030193,9.797601,0.001848,0.000154,0.004960,0.139632,-0.644823,-1.191525,100301.0000
1764075372685428874,2025-11-25 18:26:12.682,0.474602,1.071065,267.917381,0.015186,0.010914,0.978401,0.116458,0.161476,9.759229,-0.003903,0.001445,0.012436,0.138664,-0.644370,-1.192480,100303.0000
1764075372786166726,2025-11-25 18:26:12.782,0.457694,1.046597,267.872375,0.014005,0.009740,0.978655,0.161022,0.045543,9.807374,-0.003773,0.005662,0.005579,0.138170,-0.643936,-1.194406,100308.0000
1764075372885234059,2025-11-25 18:26:12.882,0.444172,1.029543,267.828133,0.012581,0.008901,0.978704,0.097003,0.129873,9.760183,0.000769,0.006121,0.010639,0.138666,-0.643893,-1.192488,100305.0000
1764075372985538041,2025-11-25 18:26:12.982,0.448033,1.031439,267.782776,0.012174,0.008708,0.979065,0.157561,0.074820,9.820860,0.000443,-0.001702,0.009703,0.135773,-0.642981,-1.193904,100314.0000
1764075373085898448,2025-11-25 18:26:13.083,0.459154,1.049592,267.735809,0.012373,0.008499,0.979031,0.116925,0.101652,9.755375,0.001638,0.000304,0.012470,0.136222,-0.645418,-1.196282,100310.0000
1764075373186292726,2025-11-25 18:26:13.183,0.472939,1.067947,267.691246,0.013577,0.009407,0.979070,0.159353,0.082982,9.818728,0.007651,-0.005489,0.004851,0.136236,-0.643497,-1.195830,100307.0000
1764075373286282263,2025-11-25 18:26:13.283,0.485629,1.086132,267.641777,0.014920,0.010134,0.978508,0.127764,0.099782,9.745939,0.003250,-0.005929,0.013688,0.136716,-0.646798,-1.193860,100309.0000
1764075373385937559,2025-11-25 18:26:13.382,0.496826,1.095143,267.596695,0.014681,0.011146,0.978388,0.160467,0.131808,9.793939,0.004241,0.002827,0.004340,0.135300,-0.642018,-1.193430,100311.0000
1764075373486598004,2025-11-25 18:26:13.483,0.492242,1.094151,267.554581,0.014744,0.011230,0.978113,0.128539,0.086892,9.750944,-0.001393,0.000728,0.013158,0.134347,-0.642469,-1.191964,100309.0000
1764075373586952726,2025-11-25 18:26:13.582,0.478992,1.081862,267.513260,0.014203,0.010964,0.978168,0.143097,0.147926,9.821045,0.001397,-0.000095,0.004634,0.132411,-0.641563,-1.193876,100309.0000
1764075373686426411,2025-11-25 18:26:13.682,0.458387,1.065568,267.470680,0.014326,0.009834,0.978683,0.134974,0.033366,9.771231,0.003655,0.003028,0.010389,0.132382,-0.644470,-1.195758,100317.0000
1764075373785658874,2025-11-25 18:26:13.783,0.449714,1.048029,267.423630,0.014030,0.009183,0.978937,0.143034,0.145777,9.817142,-0.001445,0.003953,0.007333,0.131927,-0.641575,-1.194350,100313.0000
1764075373885215948,2025-11-25 18:26:13.882,0.451190,1.033828,267.377655,0.013453,0.008132,0.978976,0.154891,0.028420,9.786754,0.001985,0.003581,0.010257,0.129535,-0.641078,-1.192878,100310.0000
1764075373985445837,2025-11-25 18:26:13.982,0.462566,1.028355,267.327271,0.012981,0.009191,0.978907,0.110863,0.172519,9.789676,0.001643,0.001968,0.004361,0.130948,-0.644923,-1.194285,100311.0000
1764075374085778188,2025-11-25 18:26:14.083,0.474940,1.034563,267.279686,0.012622,0.009156,0.978439,0.147263,0.022581,9.755132,0.006513,-0.002190,0.012571,0.129025,-0.643042,-1.195248,100311.0000
1764075374186463485,2025-11-25 18:26:14.182,0.481309,1.053955,267.236214,0.012602,0.010619,0.978224,0.129417,0.198425,9.783902,0.001156,-0.007118,0.010325,0.129050,-0.643448,-1.191872,100305.0000
1764075374287272892,2025-11-25 18:26:14.283,0.484526,1.076137,267.189636,0.013493,0.010549,0.978380,0.164927,0.013065,9.771641,0.003134,-0.005149,0.009601,0.130966,-0.643460,-1.192863,100311.0000
1764075374385415540,2025-11-25 18:26:14.382,0.480366,1.097166,267.146027,0.014350,0.010826,0.978540,0.116785,0.196059,9.783950,-0.000103,-0.000472,0.010524,0.129050,-0.642503,-1.192368,100307.0000
1764075374485917151,2025-11-25 18:26:14.483,0.468883,1.104987,267.102272,0.015656,0.009657,0.978786,0.184104,0.010129,9.807599,0.003123,-0.002271,0.013813,0.129037,-0.644424,-1.192819,100309.0000
1764075374586683447,2025-11-25 18:26:14.582,0.464177,1.100827,267.058411,0.015177,0.009684,0.978739,0.108472,0.169487,9.785860,-0.002323,0.003750,0.007255,0.129052,-0.642970,-1.191879,100307.0000
1764075374686288058,2025-11-25 18:26:14.683,0.464894,1.078428,267.016098,0.015270,0.009045,0.978722,0.165135,0.000635,9.792184,0.003162,0.002201,0.007390,0.127097,-0.644473,-1.194717,100308.0000
1764075374786016873,2025-11-25 18:26:14.783,0.466095,1.054967,266.970474,0.014150,0.009741,0.978760,0.094037,0.182853,9.773887,0.003587,0.003794,0.008748,0.128068,-0.641145,-1.195745,100309.0000
1764075374886457151,2025-11-25 18:26:14.882,0.470395,1.036401,266.921608,0.013266,0.009903,0.978503,0.147835,0.020727,9.800852,0.000481,0.004628,0.008051,0.128088,-0.642507,-1.192353,100305.0000
1764075374985512669,2025-11-25 18:26:14.982,0.470237,1.026889,266.876503,0.012397,0.010088,0.978478,0.094395,0.171963,9.772085,0.004913,-0.002759,0.012587,0.125672,-0.643016,-1.193273,100306.0000
1764075375085691317,2025-11-25 18:26:15.082,0.469644,1.033423,266.831261,0.012538,0.010292,0.978421,0.177410,0.035307,9.815574,-0.000690,-0.001566,0.005324,0.123756,-0.644417,-1.191297,100316.0000
1764075375185961558,2025-11-25 18:26:15.183,0.470774,1.055009,266.784584,0.012786,0.010196,0.978018,0.101592,0.166420,9.759274,0.008956,-0.004939,0.010173,0.122294,-0.645887,-1.192698,100303.0000
1764075375285466095,2025-11-25 18:26:15.282,0.471866,1.076726,266.739136,0.013757,0.009584,0.978354,0.167506,0.055598,9.800315,-0.000755,-0.003139,0.005451,0.122779,-0.643517,-1.193705,100303.0000
1764075375385572058,2025-11-25 18:26:15.382,0.471398,1.091987,266.692993,0.015139,0.009548,0.978728,0.135980,0.149447,9.772285,0.003843,-0.001023,0.012992,0.121829,-0.642545,-1.192742,100308.0000
1764075375486068799,2025-11-25 18:26:15.482,0.474214,1.091975,266.647095,0.015649,0.009617,0.979259,0.153254,0.059811,9.820823,0.003044,0.002794,0.006562,0.121826,-0.641610,-1.193720,100312.0000
1764075375586405299,2025-11-25 18:26:15.583,0.474924,1.083393,266.602524,0.015361,0.009844,0.979175,0.128355,0.085765,9.766618,0.001687,0.002369,0.012917,0.122295,-0.643997,-1.193690,100310.0000
1764075375685467836,2025-11-25 18:26:15.682,0.472660,1.066368,266.559883,0.014202,0.010309,0.978821,0.138167,0.104303,9.813878,-0.002051,0.002488,0.003564,0.121795,-0.644050,-1.196090,100307.0000
1764075375786317169,2025-11-25 18:26:15.783,0.472433,1.057457,266.519051,0.012854,0.010160,0.978457,0.125325,0.070978,9.757846,-0.001063,-0.000400,0.009246,0.121347,-0.642080,-1.193224,100310.0000
1764075375885408817,2025-11-25 18:26:15.882,0.469025,1.057609,266.479004,0.012555,0.009974,0.977864,0.122757,0.140375,9.792240,-0.002660,-0.002132,0.005168,0.119885,-0.642605,-1.195120,100309.0000
1764075375985782243,2025-11-25 18:26:15.982,0.466025,1.069850,266.434723,0.013243,0.009292,0.977696,0.146632,0.039123,9.756737,0.004476,-0.003840,0.013587,0.120856,-0.641635,-1.194668,100311.0000
1764075376085641669,2025-11-25 18:26:16.082,0.466600,1.079940,266.389343,0.014147,0.009874,0.978096,0.138990,0.151542,9.806725,-0.000778,-0.002889,0.004351,0.119902,-0.643032,-1.192706,100316.0000
1764075376186120020,2025-11-25 18:26:16.183,0.470558,1.089074,266.341782,0.014754,0.009798,0.978869,0.148898,0.019616,9.775172,0.001087,-0.000440,0.009576,0.118939,-0.641623,-1.193677,100306.0000
1764075376285646131,2025-11-25 18:26:16.282,0.468350,1.084188,266.306816,0.015178,0.010099,0.979366,0.123880,0.192046,9.804653,-0.000349,-0.001885,0.002958,0.118464,-0.642083,-1.192700,100309.0000
1764075376385177891,2025-11-25 18:26:16.382,0.470108,1.073778,266.270348,0.015018,0.009843,0.979300,0.159798,0.015197,9.779776,-0.002964,0.000745,0.008025,0.115571,-0.641638,-1.193627,100307.0000
1764075376486133187,2025-11-25 18:26:16.483,0.467484,1.059393,266.228615,0.013882,0.009429,0.978679,0.101998,0.168072,9.774664,0.002093,-0.000118,0.009097,0.116070,-0.641118,-1.191716,100308.0000
1764075376586467391,2025-11-25 18:26:16.582,0.468049,1.049845,266.184555,0.013153,0.009291,0.978224,0.156900,0.021952,9.790139,-0.000723,0.000954,0.009484,0.117952,-0.643579,-1.195559,100312.0000
1764075376686310446,2025-11-25 18:26:16.682,0.473608,1.051712,266.137924,0.012521,0.009911,0.977815,0.091217,0.200658,9.774879,0.003140,-0.000844,0.011624,0.117508,-0.640654,-1.192708,100307.0000
1764075376785691557,2025-11-25 18:26:16.783,0.481690,1.063742,266.091408,0.012985,0.009893,0.978141,0.174510,-0.004685,9.780468,0.001587,-0.001371,0.006568,0.114134,-0.641157,-1.193132,100308.0000
1764075376886267594,2025-11-25 18:26:16.883,0.483272,1.088834,266.046600,0.012943,0.010609,0.978346,0.101112,0.187552,9.765914,-0.002730,-0.005593,0.012271,0.115562,-0.641192,-1.195079,100311.0000
1764075376985323335,2025-11-25 18:26:16.982,0.482523,1.111906,266.005554,0.014496,0.010571,0.979110,0.182875,0.024124,9.817070,0.004764,-0.001991,0.009846,0.113646,-0.642592,-1.193103,100310.0000
1764075377085483501,2025-11-25 18:26:17.082,0.474622,1.124722,265.963593,0.015245,0.010502,0.978985,0.121978,0.172976,9.761032,-0.003648,-0.000344,0.009194,0.113658,-0.641617,-1.192155,100311.0000
1764075377185718649,2025-11-25 18:26:17.182,0.465617,1.120786,265.922668,0.015831,0.009518,0.979008,0.192390,0.019307,9.811620,0.003572,0.004456,0.005969,0.111264,-0.639239,-1.192156,100309.0000
1764075377286349057,2025-11-25 18:26:17.283,0.459389,1.102345,265.878212,0.015686,0.009629,0.978438,0.115667,0.172017,9.765878,-0.000067,0.000756,0.011906,0.112686,-0.642119,-1.193096,100306.0000
1764075377386551760,2025-11-25 18:26:17.382,0.456971,1.070469,265.832932,0.015109,0.009142,0.978339,0.151627,0.053676,9.808404,0.000004,0.006563,0.005526,0.113631,-0.641688,-1.195524,100311.0000
1764075377485272223,2025-11-25 18:26:17.482,0.455512,1.042570,265.789032,0.013023,0.009514,0.978070,0.100109,0.145532,9.760586,0.000941,0.002903,0.010854,0.108838,-0.638833,-1.195015,100313.0000
1764075377586110001,2025-11-25 18:26:17.583,0.460183,1.026283,265.744911,0.012586,0.009512,0.978567,0.151476,0.066490,9.819861,0.004020,-0.001380,0.003575,0.110756,-0.641670,-1.194037,100310.0000
1764075377685948908,2025-11-25 18:26:17.682,0.465762,1.027775,265.701645,0.011748,0.009249,0.978708,0.081466,0.106293,9.747446,0.004436,0.001570,0.013182,0.109791,-0.642152,-1.194016,100311.0000
1764075377785817853,2025-11-25 18:26:17.783,0.470476,1.052005,265.658798,0.011662,0.009573,0.978903,0.130928,0.083791,9.812463,0.002255,-0.005459,0.003476,0.112218,-0.640200,-1.192637,100316.0000
1764075377885476871,2025-11-25 18:26:17.882,0.475241,1.088332,265.612549,0.012619,0.009907,0.978619,0.116676,0.104399,9.763746,0.002953,-0.008135,0.012839,0.108359,-0.640716,-1.193535,100307.0000
1764075377985198167,2025-11-25 18:26:17.982,0.483528,1.125938,265.568718,0.014101,0.010774,0.978513,0.169794,0.109638,9.802344,0.002888,-0.007224,0.005517,0.109303,-0.641230,-1.195468,100310.0000
1764075378085910779,2025-11-25 18:26:18.082,0.481108,1.148552,265.525345,0.016106,0.010412,0.978160,0.165112,0.088004,9.774305,0.000614,-0.002230,0.012638,0.108360,-0.641183,-1.193047,100303.0000
1764075378186037260,2025-11-25 18:26:18.183,0.472372,1.149301,265.484085,0.016521,0.010748,0.978293,0.172068,0.158913,9.811914,0.002826,0.000947,0.004620,0.107384,-0.644054,-1.192989,100311.0000
1764075378286133464,2025-11-25 18:26:18.282,0.461110,1.122443,265.441711,0.016634,0.009826,0.978531,0.154578,0.075460,9.769944,0.000149,0.009827,0.007468,0.106910,-0.640265,-1.194484,100307.0000
1764075378386007056,2025-11-25 18:26:18.383,0.452245,1.085469,265.399307,0.014584,0.009622,0.978838,0.129109,0.151540,9.804239,0.000732,0.005678,0.007314,0.106937,-0.640193,-1.191114,100307.0000
1764075378486808001,2025-11-25 18:26:18.483,0.447089,1.049778,265.357544,0.012721,0.009003,0.978854,0.121261,0.061182,9.772725,0.001379,0.001079,0.009881,0.104988,-0.639796,-1.194463,100305.0000
1764075378586450352,2025-11-25 18:26:18.583,0.444631,1.033281,265.315414,0.011407,0.009529,0.978721,0.104438,0.166316,9.787021,0.002354,0.000820,0.005258,0.105459,-0.642649,-1.193945,100315.0000
1764075378686232926,2025-11-25 18:26:18.682,0.448217,1.045859,265.274544,0.011582,0.008985,0.978385,0.131620,0.010512,9.776062,0.001305,-0.003799,0.008284,0.105940,-0.642647,-1.193952,100305.0000
1764075378785431797,2025-11-25 18:26:18.783,0.458887,1.070814,265.234146,0.012492,0.009439,0.978200,0.139895,0.175052,9.791059,0.003511,-0.007626,0.007144,0.103068,-0.640262,-1.193464,100309.0000
1764075378885328945,2025-11-25 18:26:18.882,0.474247,1.100759,265.190300,0.013796,0.009372,0.978443,0.148595,0.023661,9.775521,0.002280,-0.003674,0.009293,0.104031,-0.641670,-1.192494,100308.0000
1764075378986623000,2025-11-25 18:26:18.983,0.482531,1.115279,265.146111,0.015067,0.010558,0.978261,0.143325,0.205972,9.784759,0.004638,-0.003685,0.008108,0.102103,-0.643102,-1.191962,100303.0000
1764075379085526148,2025-11-25 18:26:19.083,0.485290,1.114334,265.108475,0.015675,0.010273,0.978172,0.163596,0.022618,9.778553,0.001371,-0.000337,0.006951,0.103556,-0.641184,-1.192013,100305.0000
1764075379186040870,2025-11-25 18:26:19.182,0.481777,1.102434,265.066292,0.014792,0.011077,0.978546,0.132197,0.209297,9.786024,-0.002198,0.002643,0.005277,0.100630,-0.642244,-1.196288,100309.0000
1764075379286698185,2025-11-25 18:26:19.283,0.468706,1.090454,265.024483,0.014377,0.010059,0.978791,0.176351,0.004215,9.783873,-0.001754,-0.000044,0.007221,0.101608,-0.642199,-1.194376,100310.0000
1764075379386104833,2025-11-25 18:26:19.383,0.449812,1.080594,264.984505,0.013449,0.010308,0.979128,0.102907,0.178717,9.789875,-0.004479,0.003676,0.008575,0.102076,-0.643173,-1.195332,100310.0000
1764075379485426074,2025-11-25 18:26:19.482,0.444484,1.081459,264.943848,0.012989,0.008528,0.978968,0.160242,-0.016938,9.786387,0.002474,0.000230,0.007715,0.101616,-0.641234,-1.193910,100319.0000
1764075379586567963,2025-11-25 18:26:19.583,0.444367,1.088169,264.901260,0.013551,0.008930,0.979030,0.111542,0.182350,9.796585,-0.002308,0.000636,0.006134,0.099208,-0.641722,-1.193867,100301.0000
1764075379686449666,2025-11-25 18:26:19.682,0.453449,1.092134,264.863937,0.014320,0.009030,0.978657,0.173802,0.008713,9.789721,0.009343,-0.002841,0.006543,0.098723,-0.641735,-1.194341,100312.0000
1764075379785398148,2025-11-25 18:26:19.782,0.469427,1.092543,264.825966,0.014537,0.010006,0.977828,0.118048,0.193518,9.758688,0.001053,-0.002137,0.008645,0.099691,-0.639830,-1.194866,100315.0000
1764075379885426666,2025-11-25 18:26:19.882,0.472754,1.086985,264.784676,0.014348,0.010551,0.977861,0.166770,0.009148,9.791496,0.002850,0.000793,0.007182,0.097768,-0.641718,-1.193364,100304.0000
1764075379985457870,2025-11-25 18:26:19.982,0.471258,1.077322,264.742065,0.013648,0.010758,0.978052,0.106645,0.191193,9.774193,0.002037,0.003913,0.007701,0.098258,-0.640751,-1.192904,100310.0000
1764075380085609648,2025-11-25 18:26:20.082,0.467648,1.075843,264.698387,0.013168,0.010035,0.978523,0.156543,0.005049,9.801271,-0.003261,0.002396,0.005585,0.099226,-0.641204,-1.191949,100315.0000
1764075380185438037,2025-11-25 18:26:20.182,0.463397,1.083831,264.655510,0.013287,0.009718,0.978899,0.116918,0.178618,9.774658,0.003378,-0.000771,0.014385,0.096840,-0.640219,-1.190002,100304.0000
1764075380285358370,2025-11-25 18:26:20.282,0.457762,1.099282,264.614906,0.013433,0.009333,0.979022,0.166433,0.013481,9.834072,-0.000444,-0.005477,0.006775,0.096793,-0.641286,-1.195283,100312.0000
1764075380386365444,2025-11-25 18:26:20.383,0.458482,1.111235,264.572754,0.014100,0.009678,0.978901,0.131050,0.190996,9.771956,0.001316,-0.002212,0.009675,0.093926,-0.641248,-1.192833,100301.0000
1764075380486499370,2025-11-25 18:26:20.483,0.461006,1.118157,264.533447,0.014869,0.009940,0.978850,0.177835,0.040398,9.805073,0.003768,-0.004940,0.006021,0.094923,-0.637381,-1.190980,100305.0000
1764075380586237536,2025-11-25 18:26:20.582,0.463499,1.114988,264.492889,0.014574,0.009748,0.978385,0.134530,0.154665,9.756310,0.000573,-0.001159,0.010608,0.094415,-0.640280,-1.192373,100316.0000
1764075380686177184,2025-11-25 18:26:20.682,0.467373,1.107016,264.453575,0.014207,0.009896,0.978505,0.167705,0.036322,9.816165,-0.000809,0.003272,0.003615,0.094417,-0.639335,-1.192870,100303.0000
1764075380786202499,2025-11-25 18:26:20.783,0.471122,1.102458,264.411064,0.013711,0.009842,0.978328,0.104994,0.168068,9.758338,0.003212,0.003335,0.011851,0.092497,-0.639801,-1.191871,100303.0000
1764075380885459110,2025-11-25 18:26:20.882,0.466419,1.096613,264.372047,0.013895,0.010265,0.978399,0.168460,0.060453,9.818780,0.003098,0.002279,0.003712,0.092487,-0.642657,-1.191345,100310.0000
1764075380986681610,2025-11-25 18:26:20.983,0.456456,1.091136,264.332214,0.013695,0.010382,0.978556,0.111342,0.133100,9.753276,-0.000517,0.002692,0.008940,0.091046,-0.638415,-1.193797,100311.0000
1764075381086430295,2025-11-25 18:26:21.083,0.449271,1.084456,264.293900,0.013951,0.009437,0.978794,0.162125,0.063858,9.808514,0.002725,0.001341,0.001807,0.092462,-0.642251,-1.194722,100308.0000
1764075381185956758,2025-11-25 18:26:21.183,0.449339,1.079834,264.256310,0.013413,0.008633,0.978794,0.098056,0.119508,9.760974,0.004267,-0.000008,0.011800,0.092971,-0.639819,-1.192841,100313.0000
1764075381286265147,2025-11-25 18:26:21.283,0.459906,1.083786,264.214890,0.013092,0.008937,0.978851,0.167912,0.081544,9.814334,0.007127,-0.000056,0.007898,0.092008,-0.639824,-1.192827,100309.0000
1764075381385228017,2025-11-25 18:26:21.382,0.474067,1.096866,264.171806,0.013384,0.009079,0.978489,0.118453,0.102018,9.750530,0.004050,-0.004093,0.010351,0.090557,-0.642209,-1.192287,100305.0000
1764075381485674591,2025-11-25 18:26:21.482,0.481470,1.112124,264.128761,0.013563,0.010326,0.978478,0.155703,0.100312,9.796624,0.006661,-0.004560,0.001010,0.092972,-0.640287,-1.192352,100305.0000
1764075381585511795,2025-11-25 18:26:21.582,0.482745,1.127916,264.094276,0.014229,0.011353,0.977916,0.134037,0.114097,9.754373,-0.002350,-0.001276,0.009075,0.089141,-0.637428,-1.191858,100313.0000
1764075381685916888,2025-11-25 18:26:21.683,0.477800,1.133955,264.056915,0.014753,0.011308,0.978203,0.169973,0.118291,9.811381,-0.000829,-0.003026,0.002954,0.088652,-0.639808,-1.191333,100313.0000
1764075381786238832,2025-11-25 18:26:21.783,0.456919,1.125146,264.019623,0.014921,0.010190,0.978335,0.136821,0.075598,9.775936,-0.000404,-0.001896,0.010997,0.090088,-0.639822,-1.192317,100313.0000
1764075381885679128,2025-11-25 18:26:21.883,0.443241,1.108540,263.978470,0.014934,0.009259,0.978984,0.141481,0.103057,9.822816,-0.002648,0.003340,0.006814,0.088166,-0.636995,-1.193776,100313.0000
1764075381986018684,2025-11-25 18:26:21.983,0.438874,1.089733,263.937096,0.014264,0.007777,0.978937,0.137331,0.063262,9.758629,0.003570,0.000924,0.012128,0.086711,-0.638445,-1.194214,100308.0000
1764075382086199776,2025-11-25 18:26:22.083,0.447379,1.077463,263.896111,0.013941,0.008660,0.979115,0.138762,0.148354,9.803157,-0.000670,0.001988,0.004077,0.088633,-0.638914,-1.194235,100311.0000
1764075382186041295,2025-11-25 18:26:22.183,0.465790,1.069836,263.852974,0.013225,0.008823,0.978964,0.130462,0.043033,9.767107,0.005322,0.000861,0.010890,0.086212,-0.641323,-1.194645,100307.0000
1764075382285983665,2025-11-25 18:26:22.283,0.486691,1.073595,263.813782,0.012938,0.010522,0.978465,0.118108,0.178129,9.796569,0.006482,-0.003674,0.004177,0.086714,-0.637967,-1.194222,100307.0000
1764075382386115683,2025-11-25 18:26:22.383,0.491192,1.080012,263.778526,0.013513,0.011117,0.978007,0.149515,0.049291,9.758902,0.001499,0.003730,0.006366,0.087695,-0.637912,-1.191829,100309.0000
1764075382486016517,2025-11-25 18:26:22.483,0.482726,1.093484,263.738815,0.013722,0.011428,0.978340,0.131222,0.188706,9.799893,0.000680,-0.005038,0.006842,0.086713,-0.640325,-1.192741,100309.0000
1764075382585720202,2025-11-25 18:26:22.583,0.471977,1.097768,263.698784,0.014348,0.010179,0.978270,0.163777,0.001828,9.759209,-0.003730,0.000574,0.008566,0.085252,-0.640850,-1.194638,100311.0000
1764075382685518887,2025-11-25 18:26:22.682,0.455839,1.098773,263.656227,0.014351,0.009929,0.978565,0.133025,0.179889,9.792706,-0.003275,-0.001841,0.007028,0.086233,-0.639382,-1.193230,100309.0000
1764075382786318072,2025-11-25 18:26:22.783,0.447772,1.095318,263.614197,0.014168,0.008706,0.978573,0.165131,-0.016777,9.804593,-0.000939,-0.001171,0.006577,0.084804,-0.637935,-1.192268,100310.0000
1764075382885890146,2025-11-25 18:26:22.882,0.447833,1.091435,263.572281,0.013932,0.009107,0.978652,0.113491,0.194267,9.776541,0.003486,-0.003304,0.009647,0.085269,-0.641277,-1.192224,100301.0000
1764075382986382942,2025-11-25 18:26:22.983,0.454174,1.089475,263.534348,0.014001,0.008930,0.978665,0.174862,0.014630,9.784494,0.005106,0.002247,0.007118,0.084299,-0.638944,-1.194653,100313.0000
1764075383085445924,2025-11-25 18:26:23.082,0.462057,1.089819,263.496376,0.013823,0.009722,0.978709,0.098132,0.189179,9.784684,0.002408,-0.000329,0.004505,0.082864,-0.640342,-1.192684,100309.0000
1764075383186378590,2025-11-25 18:26:23.183,0.472350,1.094154,263.461166,0.013700,0.009286,0.978770,0.166911,0.006928,9.806742,0.003576,-0.005954,0.005142,0.081430,-0.638438,-1.192692,100315.0000
1764075383285646201,2025-11-25 18:26:23.282,0.480978,1.095572,263.423698,0.013330,0.010273,0.978592,0.100224,0.194332,9.755871,0.003070,0.003736,0.011112,0.080457,-0.639885,-1.193137,100311.0000
1764075383385374035,2025-11-25 18:26:23.382,0.484426,1.095944,263.382790,0.014207,0.010354,0.978786,0.180424,0.034159,9.805595,0.000721,-0.002660,0.005091,0.079512,-0.637959,-1.192190,100308.0000
1764075383485254886,2025-11-25 18:26:23.482,0.484428,1.093793,263.342552,0.014510,0.011137,0.978398,0.108444,0.186954,9.770654,-0.000823,-0.000906,0.010282,0.079506,-0.639859,-1.191679,100309.0000
1764075383586280572,2025-11-25 18:26:23.582,0.476636,1.083870,263.301666,0.014873,0.010125,0.978368,0.195781,0.024131,9.808928,-0.001146,0.001644,0.005751,0.079494,-0.639890,-1.193123,100309.0000
1764075383686290664,2025-11-25 18:26:23.683,0.469029,1.071344,263.261017,0.014079,0.009567,0.978261,0.107279,0.125351,9.759254,0.002135,0.000349,0.009026,0.080448,-0.637081,-1.196069,100303.0000
1764075383786363349,2025-11-25 18:26:23.783,0.460786,1.061178,263.222900,0.013673,0.009526,0.978352,0.147783,0.083511,9.815957,-0.001981,-0.000982,0.005277,0.079989,-0.637967,-1.192678,100313.0000
1764075383886491757,2025-11-25 18:26:23.883,0.461140,1.058179,263.181625,0.013015,0.009016,0.978118,0.106343,0.124853,9.763224,0.002070,-0.003822,0.008259,0.077577,-0.637053,-1.194101,100307.0000
1764075383985241423,2025-11-25 18:26:23.982,0.461623,1.062731,263.144035,0.012693,0.009974,0.978142,0.162560,0.106810,9.820042,-0.001397,-0.006165,0.002777,0.079002,-0.641335,-1.193576,100297.0000
1764075384085459553,2025-11-25 18:26:24.082,0.464034,1.077568,263.101227,0.013289,0.009801,0.978259,0.123322,0.086914,9.743844,0.005812,-0.004410,0.010082,0.077095,-0.638000,-1.193598,100308.0000
1764075384185944330,2025-11-25 18:26:24.182,0.465596,1.096302,263.059883,0.013648,0.010187,0.978686,0.162104,0.120533,9.803548,-0.002499,-0.002951,0.003959,0.079509,-0.638437,-1.192182,100311.0000
1764075384286272849,2025-11-25 18:26:24.283,0.465861,1.110361,263.019188,0.014967,0.009177,0.979190,0.139727,0.058164,9.773862,0.004692,-0.000529,0.012356,0.078044,-0.637559,-1.195545,100311.0000
1764075384385534404,2025-11-25 18:26:24.383,0.471161,1.115597,262.978546,0.015631,0.009547,0.979028,0.150862,0.145458,9.826494,0.001174,-0.002444,0.003966,0.076617,-0.640350,-1.191629,100309.0000
1764075384486302441,2025-11-25 18:26:24.483,0.475927,1.104170,262.940346,0.015795,0.009102,0.979122,0.175245,0.028210,9.774849,0.001836,0.002478,0.009162,0.077096,-0.636110,-1.194590,100308.0000
1764075384585468719,2025-11-25 18:26:24.582,0.482016,1.078449,262.903931,0.015014,0.010134,0.978794,0.133894,0.171186,9.796081,0.001085,0.002126,0.005083,0.074214,-0.637525,-1.193081,100301.0000
1764075384685421256,2025-11-25 18:26:24.682,0.486886,1.053373,262.866280,0.013745,0.010298,0.978286,0.142941,0.032701,9.782599,-0.000135,0.003379,0.008944,0.077087,-0.638021,-1.194561,100309.0000
1764075384786237682,2025-11-25 18:26:24.783,0.482691,1.035181,262.827484,0.012253,0.010775,0.978065,0.076358,0.193084,9.791171,-0.000677,0.000104,0.006936,0.073746,-0.635607,-1.192622,100301.0000
1764075384886224052,2025-11-25 18:26:24.883,0.466896,1.034001,262.783875,0.012316,0.010118,0.978475,0.147443,-0.002686,9.784146,-0.001495,-0.003534,0.007841,0.073251,-0.637530,-1.193067,100309.0000
1764075384985405441,2025-11-25 18:26:24.982,0.457497,1.054420,262.738388,0.012153,0.009871,0.978683,0.098797,0.169433,9.778408,0.002152,-0.008181,0.007660,0.073736,-0.638463,-1.192097,100306.0000
1764075385085370441,2025-11-25 18:26:25.082,0.451913,1.080123,262.696350,0.013471,0.008774,0.978840,0.192344,-0.001688,9.801575,-0.001937,-0.004063,0.006635,0.073241,-0.638028,-1.194023,100307.0000
1764075385185283163,2025-11-25 18:26:25.182,0.449859,1.103767,262.657402,0.014576,0.009302,0.979082,0.131079,0.170047,9.761800,0.001637,-0.003084,0.008971,0.072760,-0.636617,-1.195000,100305.0000
1764075385286425237,2025-11-25 18:26:25.283,0.456208,1.110797,262.621986,0.015661,0.009423,0.978756,0.201432,0.013569,9.813720,0.002757,-0.002862,0.003895,0.072745,-0.639483,-1.194956,100310.0000
1764075385385998219,2025-11-25 18:26:25.382,0.469506,1.102353,262.583664,0.016046,0.009867,0.978532,0.131489,0.167270,9.771559,0.006758,0.000332,0.009082,0.072793,-0.636058,-1.191157,100309.0000
1764075385485288830,2025-11-25 18:26:25.482,0.473631,1.072436,262.544472,0.015564,0.009917,0.978351,0.181491,0.051320,9.810845,-0.002211,0.006620,0.003735,0.071339,-0.638920,-1.190610,100309.0000
1764075385586381459,2025-11-25 18:26:25.582,0.477212,1.042431,262.502602,0.013822,0.010137,0.977915,0.105598,0.153028,9.745841,0.001822,0.003571,0.009006,0.070853,-0.637520,-1.192069,100307.0000
1764075385686071941,2025-11-25 18:26:25.682,0.476393,1.025200,262.460014,0.012446,0.010222,0.977952,0.113364,0.058282,9.819802,-0.003958,0.000114,0.006323,0.069401,-0.638492,-1.192514,100310.0000
1764075385785647181,2025-11-25 18:26:25.782,0.471382,1.023172,262.418716,0.012030,0.010038,0.978369,0.110068,0.122174,9.752547,-0.000855,0.001270,0.011423,0.070847,-0.635650,-1.194024,100302.0000
1764075385885503866,2025-11-25 18:26:25.882,0.466134,1.038611,262.381378,0.012622,0.009947,0.978698,0.173380,0.089941,9.825104,-0.000019,-0.005622,0.005728,0.067957,-0.637086,-1.193478,100311.0000
1764075385986310163,2025-11-25 18:26:25.983,0.467587,1.064678,262.341698,0.013363,0.009609,0.978916,0.109656,0.106840,9.756889,0.002532,-0.007837,0.011975,0.067002,-0.635657,-1.193485,100309.0000
1764075386085618274,2025-11-25 18:26:26.082,0.469546,1.081885,262.302315,0.014530,0.009913,0.978885,0.176830,0.100025,9.813128,0.002394,-0.004802,0.005096,0.066030,-0.637572,-1.193442,100308.0000
1764075386186411885,2025-11-25 18:26:26.183,0.471465,1.094031,262.259354,0.015085,0.009257,0.978444,0.145064,0.096070,9.759399,0.007334,-0.000463,0.010671,0.069401,-0.637080,-1.193499,100305.0000
1764075386286306755,2025-11-25 18:26:26.282,0.474217,1.092940,262.216278,0.015269,0.010175,0.978759,0.173063,0.127919,9.813225,-0.000149,-0.000009,-0.000428,0.067470,-0.637576,-1.193945,100304.0000
1764075386388387922,2025-11-25 18:26:26.382,0.474086,1.084919,262.173393,0.014465,0.009753,0.978627,0.133452,0.087243,9.759109,0.007495,0.000583,0.013119,0.065552,-0.637097,-1.193442,100310.0000
1764075386486963866,2025-11-25 18:26:26.483,0.467166,1.069051,262.135727,0.014237,0.010375,0.978571,0.140192,0.114403,9.798772,-0.002578,0.000569,0.000998,0.065082,-0.637068,-1.191991,100317.0000
1764075386585223755,2025-11-25 18:26:26.582,0.462986,1.055110,262.095146,0.013216,0.009640,0.978837,0.131015,0.049452,9.768996,0.000533,0.001408,0.008340,0.065073,-0.638034,-1.192458,100318.0000
1764075386685391866,2025-11-25 18:26:26.682,0.459941,1.047558,262.055908,0.012920,0.009485,0.978481,0.135328,0.165162,9.800980,-0.001622,-0.001597,0.002737,0.064613,-0.636095,-1.191035,100308.0000
1764075386786154070,2025-11-25 18:26:26.783,0.460623,1.052361,262.016891,0.012632,0.008823,0.978260,0.121765,0.055193,9.762217,0.002410,-0.003562,0.013842,0.065056,-0.637607,-1.194872,100312.0000
1764075386885527921,2025-11-25 18:26:26.883,0.470710,1.065676,261.973045,0.013352,0.009288,0.978399,0.138976,0.151343,9.808664,0.002724,0.001340,0.005512,0.062177,-0.637600,-1.193866,100307.0000
1764075386986203903,2025-11-25 18:26:26.983,0.481335,1.080304,261.928795,0.014202,0.009871,0.978507,0.155847,0.018851,9.788665,0.004603,-0.002619,0.006862,0.063636,-0.633782,-1.194427,100307.0000
1764075387086042162,2025-11-25 18:26:27.083,0.485102,1.085179,261.885139,0.014778,0.010788,0.978662,0.132418,0.199274,9.780767,0.001063,-0.001786,0.007654,0.062681,-0.636124,-1.191970,100310.0000
1764075387186356569,2025-11-25 18:26:27.182,0.479904,1.081640,261.842659,0.015135,0.010290,0.978942,0.166246,0.016680,9.795239,-0.001188,0.003184,0.005749,0.062669,-0.638512,-1.191933,100309.0000
1764075387285433440,2025-11-25 18:26:27.282,0.469371,1.071368,261.803368,0.014473,0.010768,0.978703,0.101530,0.187750,9.776790,0.000960,0.003167,0.009756,0.061688,-0.637622,-1.194822,100306.0000
1764075387386054254,2025-11-25 18:26:27.383,0.458295,1.055506,261.764336,0.014245,0.009424,0.978600,0.148646,0.016933,9.786591,-0.000487,0.000586,0.007585,0.060284,-0.635169,-1.191468,100313.0000
1764075387486176403,2025-11-25 18:26:27.483,0.450762,1.044178,261.723801,0.013381,0.009009,0.978169,0.123374,0.178564,9.772894,0.006869,0.000568,0.009897,0.061710,-0.637094,-1.192422,100304.0000
1764075387586185365,2025-11-25 18:26:27.582,0.449548,1.041320,261.679626,0.012788,0.008584,0.978389,0.171929,-0.001135,9.795515,0.002485,-0.003045,0.007565,0.059294,-0.636190,-1.194327,100309.0000
1764075387686023810,2025-11-25 18:26:27.682,0.455487,1.052433,261.636818,0.012412,0.009390,0.978307,0.092751,0.194357,9.784106,0.005109,-0.006292,0.010584,0.063138,-0.637128,-1.194369,100309.0000
1764075387785800976,2025-11-25 18:26:27.783,0.465174,1.070782,261.595131,0.013210,0.009351,0.979098,0.162707,0.013809,9.810900,0.005625,-0.004224,0.005457,0.060767,-0.634689,-1.191482,100303.0000
1764075387886093550,2025-11-25 18:26:27.882,0.473022,1.090338,261.556931,0.014078,0.010133,0.978902,0.112044,0.167710,9.766164,0.001941,-0.004246,0.009351,0.057380,-0.636168,-1.192854,100308.0000
1764075387986570347,2025-11-25 18:26:27.983,0.473032,1.103800,261.523140,0.015361,0.010531,0.979005,0.175106,0.049425,9.822488,0.004730,-0.003772,0.002924,0.059284,-0.635743,-1.195779,100307.0000
1764075388085421402,2025-11-25 18:26:28.082,0.471773,1.101397,261.481026,0.015714,0.010638,0.978455,0.138499,0.152194,9.770337,-0.005696,0.004399,0.010604,0.056420,-0.635695,-1.192848,100311.0000
1764075388186055902,2025-11-25 18:26:28.182,0.465425,1.091241,261.439545,0.015388,0.010165,0.978898,0.173214,0.056027,9.830925,0.000742,0.001311,0.003534,0.057875,-0.634245,-1.192409,100305.0000
1764075388285687865,2025-11-25 18:26:28.283,0.459057,1.070451,261.395966,0.014530,0.009779,0.978641,0.107812,0.131545,9.776891,-0.003633,0.004618,0.011016,0.056913,-0.635662,-1.191410,100305.0000
1764075388385341958,2025-11-25 18:26:28.382,0.460815,1.055277,261.352760,0.013416,0.009752,0.978715,0.154437,0.086952,9.807644,0.000034,0.001919,0.004710,0.055958,-0.632821,-1.192403,100317.0000
1764075388485243420,2025-11-25 18:26:28.482,0.459297,1.049863,261.313454,0.012668,0.009751,0.978138,0.105845,0.097695,9.747929,0.001551,-0.001029,0.008531,0.056905,-0.634270,-1.193358,100306.0000
1764075388585253735,2025-11-25 18:26:28.582,0.454852,1.051971,261.273003,0.013088,0.009758,0.978050,0.141185,0.088506,9.818937,0.003145,-0.002555,0.006489,0.054037,-0.632819,-1.191893,100311.0000
1764075388685330883,2025-11-25 18:26:28.682,0.452742,1.055854,261.234497,0.013317,0.009213,0.977900,0.118749,0.088528,9.749942,0.003078,-0.002455,0.010383,0.054959,-0.637165,-1.194248,100307.0000
1764075388786423068,2025-11-25 18:26:28.783,0.458478,1.068352,261.191147,0.013765,0.009543,0.978715,0.156179,0.096549,9.809502,0.000518,-0.004174,0.006236,0.054024,-0.634740,-1.192345,100305.0000
1764075388885440661,2025-11-25 18:26:28.882,0.464176,1.075998,261.148949,0.014349,0.009126,0.978961,0.132901,0.072977,9.781194,0.004925,-0.001186,0.008668,0.054014,-0.634293,-1.193797,100306.0000
1764075388985257383,2025-11-25 18:26:28.982,0.468025,1.081554,261.107025,0.014524,0.010218,0.979152,0.151570,0.142592,9.833323,0.000780,0.001847,0.004273,0.052557,-0.636220,-1.194227,100311.0000
1764075389085753735,2025-11-25 18:26:29.083,0.474614,1.084746,261.065750,0.014303,0.009994,0.979180,0.152471,0.040364,9.776641,0.006376,-0.002391,0.011292,0.052093,-0.635237,-1.192791,100309.0000
1764075389185996624,2025-11-25 18:26:29.183,0.468069,1.082196,261.029266,0.014401,0.010256,0.978808,0.151927,0.168513,9.798061,-0.004915,-0.002426,0.001241,0.050637,-0.636219,-1.193717,100307.0000
1764075389285411679,2025-11-25 18:26:29.282,0.462437,1.077955,260.991257,0.014400,0.009823,0.978516,0.140529,0.061233,9.765010,0.003685,-0.001022,0.008019,0.052572,-0.634767,-1.193287,100312.0000
1764075389388198420,2025-11-25 18:26:29.383,0.458730,1.077205,260.953094,0.014156,0.009871,0.978569,0.159649,0.148605,9.803192,-0.002123,-0.000017,0.002284,0.052083,-0.634789,-1.194242,100313.0000
1764075389486206661,2025-11-25 18:26:29.482,0.459932,1.073392,260.912956,0.014327,0.008682,0.978608,0.160905,0.006078,9.788931,0.000875,-0.000847,0.007622,0.053055,-0.635232,-1.192805,100309.0000
1764075389586277735,2025-11-25 18:26:29.583,0.464007,1.068484,260.872787,0.013506,0.009425,0.978531,0.124255,0.172882,9.799462,0.002545,0.000983,0.004158,0.052593,-0.633771,-1.191376,100305.0000
1764075389685205920,2025-11-25 18:26:29.682,0.470953,1.067082,260.830070,0.013711,0.009474,0.978352,0.158442,-0.004197,9.772201,0.000837,-0.002306,0.012691,0.048240,-0.634319,-1.193711,100303.0000
1764075389785287938,2025-11-25 18:26:29.782,0.473990,1.063054,260.785423,0.013456,0.010618,0.978163,0.098531,0.183600,9.774640,0.004112,-0.005594,0.007031,0.049194,-0.635280,-1.194192,100301.0000
1764075389885944031,2025-11-25 18:26:29.882,0.472118,1.064076,260.746468,0.013588,0.010319,0.978144,0.166611,0.004299,9.775373,-0.001311,-0.000405,0.006497,0.049670,-0.636233,-1.194185,100309.0000
1764075389985520642,2025-11-25 18:26:29.983,0.466410,1.068260,260.703880,0.013989,0.010757,0.978042,0.101605,0.182519,9.776370,-0.000920,-0.002825,0.006911,0.049694,-0.633814,-1.192777,100303.0000
1764075390085485308,2025-11-25 18:26:30.082,0.457891,1.069707,260.662796,0.014306,0.009662,0.978568,0.159750,-0.005593,9.802579,0.002038,-0.000235,0.007181,0.044885,-0.634771,-1.191729,100309.0000
1764075390186198716,2025-11-25 18:26:30.183,0.453274,1.068090,260.620216,0.014525,0.009331,0.978811,0.106278,0.176145,9.768509,0.003091,-0.005691,0.009227,0.048248,-0.632886,-1.193733,100307.0000
1764075390285298271,2025-11-25 18:26:30.282,0.457230,1.071402,260.579475,0.013990,0.008751,0.979554,0.159189,-0.004432,9.812609,-0.001813,-0.001952,0.005879,0.046346,-0.635191,-1.189336,100305.0000
1764075390386147475,2025-11-25 18:26:30.383,0.460501,1.077727,260.536095,0.013462,0.009965,0.979033,0.101673,0.185307,9.776706,0.001605,-0.002667,0.009307,0.045843,-0.633364,-1.193209,100314.0000
1764075390486535901,2025-11-25 18:26:30.483,0.460064,1.090341,260.493965,0.013457,0.010242,0.978650,0.176068,0.023809,9.807801,0.002339,-0.002242,0.005492,0.046334,-0.633809,-1.191764,100314.0000
1764075390586077808,2025-11-25 18:26:30.583,0.456322,1.100331,260.453163,0.014069,0.010605,0.978156,0.096607,0.180427,9.767179,0.002050,-0.002926,0.010035,0.043440,-0.632897,-1.193181,100311.0000
1764075390685947660,2025-11-25 18:26:30.683,0.447808,1.101628,260.413498,0.015179,0.009901,0.978156,0.197774,0.030898,9.804827,-0.000136,-0.000327,0.004564,0.043442,-0.632420,-1.193188,100308.0000
1764075390786249697,2025-11-25 18:26:30.783,0.443380,1.086968,260.372505,0.015542,0.009030,0.978128,0.123652,0.150282,9.759012,0.002832,0.003596,0.009387,0.044398,-0.632903,-1.193676,100308.0000
1764075390885640789,2025-11-25 18:26:30.882,0.451511,1.062620,260.325066,0.014820,0.008030,0.978755,0.163143,0.030110,9.812325,0.001731,0.002130,0.005290,0.043919,-0.633373,-1.193181,100309.0000
1764075390986047808,2025-11-25 18:26:30.983,0.467872,1.043024,260.275833,0.012802,0.008953,0.978624,0.093104,0.138410,9.754829,0.004298,0.004435,0.011569,0.042482,-0.634304,-1.191700,100306.0000
1764075391085386530,2025-11-25 18:26:31.082,0.484966,1.045379,260.228737,0.011572,0.010238,0.979007,0.164314,0.085805,9.821680,0.006927,-0.003998,0.005327,0.044410,-0.632872,-1.192232,100309.0000
1764075391186032882,2025-11-25 18:26:31.182,0.500193,1.064810,260.183235,0.011997,0.011077,0.978497,0.110319,0.158047,9.761442,0.003798,-0.006181,0.013334,0.042488,-0.633816,-1.191226,100309.0000
1764075391286488863,2025-11-25 18:26:31.283,0.495385,1.093055,260.142235,0.013491,0.011627,0.978226,0.168511,0.090396,9.810957,-0.005859,-0.004636,0.001966,0.043940,-0.633789,-1.190285,100307.0000
1764075391385588678,2025-11-25 18:26:31.382,0.477258,1.113028,260.097176,0.015698,0.010861,0.978068,0.158272,0.114977,9.759936,-0.001221,-0.001439,0.011669,0.037203,-0.632407,-1.191170,100317.0000
1764075391485251456,2025-11-25 18:26:31.482,0.458422,1.111104,260.052116,0.016790,0.010060,0.978611,0.175971,0.100560,9.810371,-0.003205,0.002301,-0.001109,0.040582,-0.628591,-1.192241,100307.0000
1764075391586882011,2025-11-25 18:26:31.583,0.445429,1.089321,260.001671,0.015989,0.008607,0.979303,0.151934,0.049411,9.777078,0.003412,0.001988,0.016201,0.040551,-0.634801,-1.192146,100307.0000
1764075391686270937,2025-11-25 18:26:31.683,0.438376,1.062991,259.955696,0.013477,0.008814,0.978866,0.122510,0.113869,9.804981,-0.000586,0.008292,0.008065,0.040081,-0.631002,-1.193160,100316.0000
1764075391786688770,2025-11-25 18:26:31.783,0.446388,1.050104,259.904457,0.012191,0.008522,0.978701,0.118414,0.054277,9.773084,0.007359,0.000458,0.013754,0.039117,-0.631483,-1.193139,100309.0000
1764075391886310344,2025-11-25 18:26:31.883,0.457403,1.056086,259.850052,0.011901,0.009476,0.978257,0.123572,0.145760,9.806584,-0.002073,-0.001222,0.004366,0.039592,-0.633382,-1.192635,100308.0000
1764075391986639252,2025-11-25 18:26:31.983,0.467373,1.076441,259.798485,0.013257,0.009850,0.977773,0.132725,0.033433,9.769646,0.006114,-0.002299,0.012219,0.038140,-0.632941,-1.194065,100311.0000
1764075392085596011,2025-11-25 18:26:32.082,0.471883,1.094163,259.743759,0.015063,0.010310,0.977640,0.145635,0.177404,9.788371,0.002053,-0.003117,0.008435,0.038658,-0.630012,-1.191228,100314.0000
1764075392186194659,2025-11-25 18:26:32.183,0.473663,1.096512,259.690720,0.016254,0.009816,0.978361,0.167248,0.046019,9.776066,0.000325,0.000790,0.012005,0.035254,-0.632009,-1.194519,100313.0000
1764075392285534529,2025-11-25 18:26:32.282,0.474571,1.083107,259.631950,0.015003,0.010689,0.979125,0.134321,0.192558,9.802100,0.001884,0.005417,0.008198,0.036235,-0.631954,-1.192126,100306.0000
1764075392385255826,2025-11-25 18:26:32.382,0.472107,1.070621,259.577423,0.013428,0.010147,0.979411,0.133756,0.019872,9.783344,-0.001782,-0.000396,0.012162,0.036708,-0.630560,-1.194081,100307.0000
1764075392485399992,2025-11-25 18:26:32.482,0.466237,1.069681,259.518387,0.012367,0.010193,0.978990,0.101558,0.189134,9.794475,-0.002642,-0.000231,0.009103,0.034318,-0.632887,-1.190639,100312.0000
1764075392586095325,2025-11-25 18:26:32.583,0.459501,1.083736,259.458572,0.013167,0.008833,0.978881,0.166932,0.002908,9.778679,0.001860,-0.002251,0.010678,0.033360,-0.629579,-1.192120,100311.0000
1764075392686111455,2025-11-25 18:26:32.682,0.457822,1.098802,259.400352,0.014762,0.009040,0.978305,0.120725,0.181485,9.771783,0.001602,-0.003160,0.007205,0.032874,-0.630536,-1.192098,100309.0000
1764075392786341085,2025-11-25 18:26:32.783,0.464212,1.104463,259.344025,0.015415,0.008663,0.978066,0.176904,0.019126,9.799529,0.001853,0.000686,0.009553,0.032410,-0.627195,-1.192142,100313.0000
1764075392886155455,2025-11-25 18:26:32.883,0.475587,1.097718,259.287018,0.014933,0.010341,0.977883,0.108753,0.206296,9.762012,0.002233,0.003203,0.009871,0.032874,-0.629123,-1.193083,100313.0000
1764075392986238862,2025-11-25 18:26:32.983,0.476663,1.085628,259.227295,0.013979,0.010914,0.978341,0.175697,0.039218,9.795130,0.006863,-0.001995,0.011807,0.027577,-0.629157,-1.193486,100313.0000
1764075393085554029,2025-11-25 18:26:33.083,0.475171,1.075003,259.167206,0.013502,0.011182,0.978694,0.117876,0.192042,9.759441,0.000384,-0.001009,0.010500,0.030951,-0.631012,-1.191581,100307.0000
1764075393186359492,2025-11-25 18:26:33.182,0.461598,1.069675,259.109276,0.013355,0.009793,0.978788,0.180424,0.012582,9.795456,-0.002128,0.000599,0.009107,0.029506,-0.629139,-1.193033,100312.0000
1764075393286144344,2025-11-25 18:26:33.283,0.451670,1.067688,259.050926,0.013381,0.008932,0.978994,0.108957,0.160435,9.766387,-0.000278,0.000127,0.010620,0.029027,-0.628663,-1.193033,100313.0000
1764075393386123362,2025-11-25 18:26:33.383,0.453703,1.072383,258.993126,0.013299,0.008641,0.978990,0.155197,0.022894,9.801416,0.003578,-0.001068,0.003157,0.029015,-0.628693,-1.194477,100309.0000
1764075393486778195,2025-11-25 18:26:33.483,0.461603,1.087588,258.931938,0.013033,0.009471,0.978725,0.090457,0.182326,9.755497,0.003994,-0.003337,0.014330,0.025661,-0.628201,-1.192991,100309.0000
1764075393586173343,2025-11-25 18:26:33.582,0.467342,1.105643,258.871643,0.014431,0.010630,0.978407,0.175816,0.071109,9.812993,0.001181,-0.008159,0.007695,0.026116,-0.632040,-1.193902,100311.0000
1764075393686408806,2025-11-25 18:26:33.683,0.472277,1.114499,258.807137,0.014738,0.011009,0.978099,0.129277,0.149196,9.753810,0.004845,0.003443,0.015021,0.025181,-0.628670,-1.192495,100316.0000
1764075393786402825,2025-11-25 18:26:33.783,0.465926,1.106603,258.747574,0.015136,0.010568,0.978128,0.181850,0.062225,9.810142,-0.002150,0.001837,0.008325,0.024699,-0.628205,-1.192977,100316.0000
1764075393886720102,2025-11-25 18:26:33.883,0.456411,1.091192,258.686943,0.014480,0.009621,0.978256,0.115772,0.126561,9.754386,-0.001778,0.005732,0.015241,0.024199,-0.629670,-1.194392,100313.0000
1764075393986938936,2025-11-25 18:26:33.983,0.452305,1.078321,258.629860,0.013701,0.008801,0.979037,0.161567,0.072324,9.821033,-0.001363,0.002100,0.005904,0.025657,-0.630569,-1.191992,100308.0000
1764075394086799325,2025-11-25 18:26:34.083,0.459011,1.078002,258.567207,0.012440,0.008765,0.979194,0.102102,0.099973,9.768011,0.000869,0.001367,0.013922,0.021821,-0.627252,-1.192467,100309.0000
1764075394186056825,2025-11-25 18:26:34.183,0.464967,1.083001,258.503487,0.012859,0.009729,0.979067,0.158291,0.087611,9.794710,0.000491,-0.000867,0.010949,0.023754,-0.627690,-1.191044,100317.0000
1764075394285303547,2025-11-25 18:26:34.282,0.472480,1.096947,258.438789,0.013389,0.010176,0.977977,0.128533,0.086673,9.743077,0.002654,-0.001930,0.013016,0.020862,-0.627246,-1.191972,100313.0000
1764075394386059232,2025-11-25 18:26:34.382,0.475066,1.107583,258.377251,0.014555,0.010372,0.977814,0.161743,0.116774,9.796201,-0.003238,-0.003769,0.007583,0.020827,-0.629696,-1.194823,100312.0000
1764075394485898917,2025-11-25 18:26:34.483,0.478375,1.105777,258.312187,0.015436,0.009782,0.977756,0.148136,0.073708,9.744396,0.001785,-0.001299,0.015433,0.020850,-0.628222,-1.192920,100312.0000
1764075394586695824,2025-11-25 18:26:34.582,0.475667,1.095569,258.245468,0.015175,0.010354,0.978266,0.136184,0.158299,9.798294,-0.003394,0.001894,0.010388,0.017007,-0.627751,-1.192389,100304.0000
1764075394686842269,2025-11-25 18:26:34.683,0.476047,1.076248,258.176956,0.014690,0.009755,0.978692,0.134002,0.037269,9.783151,0.004756,0.005210,0.015120,0.019898,-0.626783,-1.192446,100312.0000
1764075394785881157,2025-11-25 18:26:34.782,0.472854,1.055493,258.113129,0.013169,0.010538,0.979113,0.116670,0.164741,9.810998,0.002996,0.002650,0.009956,0.016992,-0.630617,-1.192345,100305.0000
1764075394886301991,2025-11-25 18:26:34.883,0.475134,1.047987,258.048157,0.012315,0.009593,0.979003,0.107664,0.026601,9.786601,0.000736,0.001493,0.013184,0.017499,-0.627719,-1.190952,100303.0000
1764075394985893083,2025-11-25 18:26:34.982,0.475166,1.063875,257.980659,0.011404,0.010000,0.978503,0.103243,0.171968,9.788567,0.000783,-0.005028,0.010025,0.016064,-0.627705,-1.189968,100311.0000
1764075395085682880,2025-11-25 18:26:35.082,0.472695,1.095243,257.913574,0.012376,0.009195,0.978142,0.145906,-0.006130,9.772758,0.001216,-0.006500,0.016860,0.015539,-0.628764,-1.194760,100313.0000
1764075395186137602,2025-11-25 18:26:35.183,0.477014,1.132055,257.841156,0.014404,0.010009,0.977886,0.156589,0.188150,9.793047,0.004674,-0.006968,0.011323,0.014118,-0.624939,-1.194316,100301.0000
1764075395286353453,2025-11-25 18:26:35.283,0.481596,1.150605,257.765556,0.016302,0.010051,0.977969,0.181794,0.003636,9.778516,-0.000199,0.001319,0.016863,0.013181,-0.625350,-1.190924,100310.0000
1764075395385376676,2025-11-25 18:26:35.382,0.479841,1.137000,257.693535,0.017020,0.010630,0.978672,0.142732,0.185367,9.791553,0.003566,0.007023,0.011531,0.011703,-0.625448,-1.195235,100302.0000
1764075395485502602,2025-11-25 18:26:35.482,0.485862,1.100022,257.624695,0.016113,0.009719,0.979094,0.167682,0.018145,9.783475,-0.000243,0.005477,0.012378,0.013151,-0.625899,-1.194287,100311.0000
1764075395586116787,2025-11-25 18:26:35.583,0.486805,1.055789,257.554131,0.013830,0.010150,0.979211,0.092277,0.201171,9.792117,-0.000510,0.009187,0.012376,0.011243,-0.627279,-1.191348,100307.0000
1764075395686408472,2025-11-25 18:26:35.683,0.484485,1.028649,257.479538,0.011686,0.009753,0.978675,0.129854,0.031810,9.779290,0.002931,0.004685,0.015030,0.009812,-0.623953,-1.191859,100307.0000
1764075395785356601,2025-11-25 18:26:35.782,0.481841,1.027674,257.403526,0.010429,0.010429,0.977945,0.078978,0.194437,9.758088,-0.004777,-0.003252,0.013120,0.011231,-0.627310,-1.192792,100311.0000
1764075395886632972,2025-11-25 18:26:35.883,0.478818,1.057066,257.325798,0.011552,0.010385,0.977930,0.160175,0.008146,9.781265,0.003717,-0.009968,0.012851,0.009334,-0.622532,-1.192356,100316.0000
1764075395986550286,2025-11-25 18:26:35.983,0.468643,1.101092,257.246483,0.013113,0.010579,0.978125,0.106320,0.182862,9.774896,-0.001830,-0.006120,0.016706,0.006914,-0.626354,-1.191780,100311.0000
1764075396085397749,2025-11-25 18:26:36.082,0.458261,1.136079,257.169556,0.015306,0.009685,0.978766,0.190898,0.003343,9.814775,0.001060,-0.007060,0.012958,0.003090,-0.623474,-1.190323,100306.0000
1764075396186360897,2025-11-25 18:26:36.182,0.458930,1.150440,257.091438,0.016417,0.009288,0.979252,0.155975,0.175552,9.779701,-0.000210,0.002328,0.014844,0.006913,-0.624941,-1.192765,100316.0000
1764075396285710212,2025-11-25 18:26:36.283,0.464971,1.137596,257.014191,0.016489,0.008901,0.979349,0.183887,0.014246,9.823191,0.005169,-0.000261,0.013108,0.003074,-0.624460,-1.191753,100310.0000
1764075396385292675,2025-11-25 18:26:36.382,0.479272,1.104204,256.933266,0.015448,0.009597,0.978539,0.116190,0.159262,9.748343,0.003680,0.008047,0.018123,0.005001,-0.625387,-1.190803,100305.0000
1764075396485563434,2025-11-25 18:26:36.483,0.494689,1.070536,256.849678,0.013831,0.010652,0.977906,0.140177,0.058738,9.800896,0.002119,0.004841,0.007445,0.001159,-0.622558,-1.191753,100304.0000
1764075396588648619,2025-11-25 18:26:36.583,0.499479,1.046954,256.763268,0.011999,0.011131,0.977380,0.110549,0.157947,9.743371,0.004753,0.003368,0.016613,0.003565,-0.623960,-1.190804,100311.0000
1764075396686331230,2025-11-25 18:26:36.683,0.495765,1.041895,256.681778,0.011070,0.011249,0.978397,0.134863,0.085216,9.823198,0.001749,-0.000975,0.011441,0.001132,-0.626400,-1.192657,100311.0000
1764075396786352045,2025-11-25 18:26:36.783,0.484502,1.065040,256.600380,0.011146,0.010194,0.978770,0.115407,0.129353,9.763588,-0.005305,-0.003904,0.018931,-0.001262,-0.624022,-1.192659,100313.0000
1764075396886206193,2025-11-25 18:26:36.883,0.470405,1.102751,256.515259,0.012995,0.009992,0.979132,0.169792,0.094848,9.817410,0.003854,-0.006077,0.010685,0.000667,-0.623058,-1.192701,100304.0000
1764075396986310841,2025-11-25 18:26:36.983,0.457005,1.138789,256.431183,0.014728,0.009240,0.978917,0.142526,0.076171,9.763777,-0.004283,-0.003485,0.019180,-0.005571,-0.622101,-1.191179,100309.0000
1764075397085996175,2025-11-25 18:26:37.083,0.454465,1.156241,256.347008,0.015896,0.009365,0.978352,0.170180,0.104417,9.797112,-0.000336,-0.002768,0.010736,-0.003653,-0.621167,-1.192667,100310.0000
1764075397186204971,2025-11-25 18:26:37.183,0.457361,1.153776,256.262108,0.016473,0.009314,0.978055,0.155597,0.057139,9.745724,0.003669,0.003461,0.015680,-0.005099,-0.621651,-1.192638,100317.0000
1764075397285615563,2025-11-25 18:26:37.282,0.465878,1.129869,256.174911,0.015712,0.009938,0.978699,0.169550,0.143967,9.825931,0.003446,0.008631,0.014282,-0.007981,-0.622122,-1.191625,100311.0000
1764075397385251637,2025-11-25 18:26:37.382,0.475633,1.105435,256.084541,0.014146,0.009684,0.979015,0.118070,0.061838,9.770961,0.004805,0.005108,0.019341,-0.009912,-0.621206,-1.193056,100318.0000
1764075397485556026,2025-11-25 18:26:37.482,0.482898,1.077062,255.993164,0.013400,0.009521,0.979240,0.124537,0.160302,9.795395,-0.000429,0.003777,0.014245,-0.008450,-0.619736,-1.191655,100311.0000
1764075397586521656,2025-11-25 18:26:37.583,0.491444,1.062153,255.902443,0.012607,0.009594,0.978755,0.152830,0.039294,9.776170,0.005208,0.000555,0.020727,-0.009402,-0.620654,-1.189700,100313.0000
1764075397686121859,2025-11-25 18:26:37.683,0.500575,1.068858,255.814491,0.011923,0.010912,0.978090,0.113356,0.173169,9.781940,-0.000774,-0.000414,0.009619,-0.012301,-0.619285,-1.192087,100311.0000
1764075397785420748,2025-11-25 18:26:37.782,0.493863,1.090572,255.727951,0.012553,0.011064,0.978049,0.135675,0.035387,9.765503,0.006491,-0.005390,0.016540,-0.009898,-0.618339,-1.193099,100306.0000
1764075397885649952,2025-11-25 18:26:37.883,0.484194,1.116852,255.639351,0.013993,0.010801,0.978055,0.124050,0.176663,9.787368,-0.000901,-0.003495,0.014439,-0.010877,-0.621687,-1.193034,100309.0000
1764075397985886193,2025-11-25 18:26:37.983,0.470506,1.136367,255.548248,0.015006,0.009800,0.978772,0.174789,-0.002196,9.782193,-0.001631,-0.000327,0.015482,-0.014734,-0.621725,-1.193940,100311.0000
1764075398085484007,2025-11-25 18:26:38.082,0.460108,1.143470,255.453369,0.015392,0.009807,0.979294,0.116887,0.191773,9.794718,0.002773,-0.001041,0.016596,-0.013760,-0.621690,-1.192510,100303.0000
1764075398185257192,2025-11-25 18:26:38.182,0.450295,1.134745,255.359161,0.015528,0.008530,0.979609,0.179340,0.003673,9.790359,-0.006046,0.000690,0.016474,-0.016640,-0.618858,-1.193474,100303.0000
1764075398286240081,2025-11-25 18:26:38.283,0.456676,1.120712,255.259705,0.014958,0.009100,0.979201,0.124929,0.161952,9.785672,0.004958,0.001733,0.018143,-0.018066,-0.618346,-1.191535,100314.0000
1764075398385522192,2025-11-25 18:26:38.382,0.465651,1.102531,255.164642,0.014403,0.009001,0.978148,0.174011,0.004497,9.794168,0.003208,0.005574,0.017428,-0.018538,-0.618795,-1.190076,100304.0000
1764075398485438581,2025-11-25 18:26:38.482,0.472362,1.088572,255.068565,0.013080,0.010313,0.977424,0.099480,0.212939,9.773954,0.001193,0.002749,0.016701,-0.021912,-0.619298,-1.190500,100316.0000
1764075398586349174,2025-11-25 18:26:38.583,0.482131,1.089870,254.972191,0.012093,0.010548,0.977644,0.142672,0.003549,9.791561,0.003067,-0.003367,0.016391,-0.021424,-0.617863,-1.190529,100308.0000
1764075398685893729,2025-11-25 18:26:38.682,0.483301,1.103079,254.874359,0.012500,0.010870,0.977840,0.094900,0.186875,9.774285,-0.003865,-0.002058,0.021203,-0.020982,-0.622678,-1.192389,100310.0000
1764075398785836785,2025-11-25 18:26:38.783,0.478470,1.121180,254.774574,0.013388,0.009740,0.978623,0.187775,0.027381,9.805911,0.001401,-0.002011,0.015697,-0.023831,-0.618818,-1.189998,100307.0000
1764075398886433803,2025-11-25 18:26:38.883,0.476710,1.137897,254.673515,0.014413,0.009992,0.978976,0.115730,0.169091,9.776635,0.000929,-0.001144,0.018561,-0.026729,-0.616504,-1.192880,100312.0000
1764075398986746692,2025-11-25 18:26:38.983,0.472972,1.139879,254.573418,0.015131,0.009869,0.979578,0.173846,0.027317,9.824994,-0.001463,-0.001319,0.016489,-0.025751,-0.616459,-1.190969,100311.0000
1764075399086225451,2025-11-25 18:26:39.083,0.465135,1.138214,254.472649,0.014652,0.009947,0.979145,0.087939,0.162701,9.762856,0.001429,0.002189,0.017299,-0.027660,-0.612657,-1.191480,100311.0000
1764075399185567970,2025-11-25 18:26:39.183,0.465677,1.130465,254.375702,0.015167,0.009768,0.979165,0.169879,0.021181,9.807325,-0.000154,0.003252,0.012536,-0.028141,-0.616429,-1.189008,100314.0000
1764075399285653877,2025-11-25 18:26:39.282,0.469332,1.120778,254.276588,0.014101,0.009933,0.978569,0.101607,0.151932,9.745569,0.002233,0.001218,0.017642,-0.030098,-0.616052,-1.193319,100312.0000
1764075399386069025,2025-11-25 18:26:39.383,0.472833,1.110381,254.180191,0.013828,0.010171,0.978333,0.174699,0.048278,9.806820,0.000598,-0.001663,0.015200,-0.029580,-0.613122,-1.190482,100314.0000
1764075399485353173,2025-11-25 18:26:39.482,0.477094,1.103346,254.080673,0.013013,0.010095,0.978044,0.092411,0.154587,9.752509,0.005156,0.001075,0.022498,-0.032478,-0.614579,-1.190898,100309.0000
1764075399586183877,2025-11-25 18:26:39.582,0.476008,1.100999,253.980446,0.012308,0.010138,0.978023,0.160267,0.054859,9.803508,-0.004949,0.001005,0.011127,-0.032003,-0.613652,-1.192364,100310.0000
1764075399686214803,2025-11-25 18:26:39.683,0.469240,1.105199,253.883354,0.013136,0.010089,0.978091,0.118434,0.150215,9.756039,0.005217,-0.004767,0.019608,-0.033935,-0.613681,-1.193298,100307.0000
1764075399785603636,2025-11-25 18:26:39.782,0.460770,1.121144,253.786217,0.013666,0.009719,0.978279,0.153202,0.062786,9.805241,-0.001526,-0.001810,0.012302,-0.033919,-0.615053,-1.190388,100318.0000
1764075399886196654,2025-11-25 18:26:39.883,0.464123,1.137417,253.691422,0.013852,0.009329,0.978854,0.132277,0.102091,9.761039,0.004186,-0.005108,0.021472,-0.035834,-0.612206,-1.190885,100305.0000
1764075399986304358,2025-11-25 18:26:39.983,0.472791,1.147939,253.596298,0.014548,0.009365,0.978930,0.166190,0.103681,9.818322,0.005255,-0.003172,0.013727,-0.037776,-0.612733,-1.192775,100307.0000
1764075400085912951,2025-11-25 18:26:40.083,0.485069,1.149866,253.495110,0.014995,0.009589,0.978810,0.131682,0.100687,9.760173,0.009161,0.002781,0.023617,-0.038736,-0.614617,-1.191287,100308.0000
1764075400186133247,2025-11-25 18:26:40.183,0.495884,1.139327,253.393234,0.014950,0.010532,0.978687,0.163293,0.134383,9.808073,0.003460,0.002582,0.014159,-0.039671,-0.612192,-1.189384,100309.0000
1764075400285255710,2025-11-25 18:26:40.282,0.495084,1.121401,253.296196,0.014215,0.010953,0.978153,0.126779,0.108046,9.753147,0.001259,0.003308,0.018874,-0.040155,-0.612672,-1.189370,100311.0000
1764075400385369673,2025-11-25 18:26:40.382,0.491322,1.107280,253.196915,0.013103,0.010982,0.978044,0.135237,0.130146,9.806707,0.003119,-0.000408,0.014486,-0.043529,-0.610817,-1.191275,100303.0000
1764075400486346191,2025-11-25 18:26:40.483,0.479845,1.102909,253.102097,0.012771,0.010193,0.978437,0.125395,0.065194,9.763310,-0.002152,0.001994,0.021957,-0.041625,-0.612750,-1.192718,100310.0000
1764075400586087580,2025-11-25 18:26:40.582,0.467639,1.111328,253.006783,0.012819,0.010051,0.978669,0.121439,0.160575,9.810852,-0.001339,-0.002157,0.013636,-0.046427,-0.612273,-1.191691,100305.0000
1764075400685420395,2025-11-25 18:26:40.682,0.461788,1.120384,252.908112,0.013548,0.009465,0.978786,0.157696,0.038457,9.773362,-0.000798,-0.002125,0.018723,-0.044500,-0.611787,-1.191727,100305.0000
1764075400785272172,2025-11-25 18:26:40.782,0.460456,1.127376,252.807915,0.014082,0.010057,0.978595,0.132811,0.159966,9.798933,-0.000225,-0.000613,0.012817,-0.044012,-0.613655,-1.189779,100309.0000
1764075400885481969,2025-11-25 18:26:40.882,0.462342,1.138316,252.712181,0.014393,0.009829,0.977976,0.093762,0.031051,9.688228,-0.000586,-0.011272,0.015285,-0.047377,-0.609889,-1.191714,100309.0000
1764075400985273339,2025-11-25 18:26:40.982,0.453617,1.255427,252.659515,0.014843,0.012596,0.976285,0.030284,0.331863,9.737054,-0.001637,-0.027737,0.003723,-0.048821,-0.609896,-1.191692,100312.0000
1764075401085457635,2025-11-25 18:26:41.082,0.446254,1.530166,252.625435,0.022110,0.008666,0.974942,0.311477,-0.202878,9.754530,-0.001588,-0.065391,0.005635,-0.051679,-0.608893,-1.188776,100311.0000
1764075401185832691,2025-11-25 18:26:41.182,0.455157,2.045625,252.610847,0.040757,0.008886,0.973670,0.624568,0.461493,9.723653,0.009572,-0.112353,0.002394,-0.056947,-0.608377,-1.185817,100307.0000
1764075401285776709,2025-11-25 18:26:41.283,0.466420,2.817891,252.653641,0.073086,0.011080,0.973511,1.063696,0.181849,9.566442,0.004512,-0.152057,-0.012061,-0.063698,-0.610806,-1.186162,100311.0000
1764075401386385561,2025-11-25 18:26:41.383,0.492351,3.720661,252.716454,0.117224,0.009424,0.974702,1.950000,0.852547,9.995347,0.009357,-0.151852,-0.003830,-0.069919,-0.611688,-1.181241,100307.0000
1764075401486484191,2025-11-25 18:26:41.482,0.511588,4.470321,252.779404,0.157316,0.011816,0.976460,1.979974,-0.205953,9.806399,0.003766,-0.095386,-0.002697,-0.077593,-0.612128,-1.177750,100309.0000
1764075401585593339,2025-11-25 18:26:41.582,0.516614,4.792512,252.857544,0.181064,0.013157,0.974087,1.914797,0.324857,9.734775,0.002121,-0.008121,-0.009969,-0.081435,-0.612125,-1.176731,100309.0000
1764075401685976264,2025-11-25 18:26:41.683,0.503410,4.629715,252.971581,0.177767,0.012944,0.971395,1.520920,-0.173386,9.642503,-0.009328,0.062181,-0.019495,-0.077581,-0.611153,-1.176802,100299.0000
1764075401785516542,2025-11-25 18:26:41.782,0.476620,4.154927,253.087822,0.156768,0.012406,0.969078,1.516337,0.138745,9.864723,-0.002471,0.094003,-0.023128,-0.070858,-0.613043,-1.177354,100309.0000
1764075401886190783,2025-11-25 18:26:41.883,0.445024,3.658499,253.204819,0.127525,0.011950,0.967460,1.125286,0.241353,9.499160,-0.014583,0.068862,-0.029320,-0.067507,-0.610244,-1.181299,100307.0000
1764075401986031542,2025-11-25 18:26:41.982,0.429545,3.391742,253.304909,0.102754,0.008751,0.969863,1.149569,0.664733,9.661335,0.001081,0.019531,-0.010496,-0.061755,-0.613104,-1.182303,100305.0000
1764075402085444838,2025-11-25 18:26:42.082,0.425391,3.448691,253.411446,0.094923,0.009732,0.971464,1.105734,0.547011,9.799850,-0.007620,-0.033792,-0.027859,-0.060802,-0.612653,-1.183768,100309.0000
1764075402185540542,2025-11-25 18:26:42.182,0.439654,3.812065,253.510201,0.099188,0.007366,0.972945,0.553632,0.133058,9.519640,0.004508,-0.088933,-0.012364,-0.064158,-0.614050,-1.181290,100311.0000
1764075402285347560,2025-11-25 18:26:42.282,0.470711,4.315975,253.591423,0.125274,0.009709,0.976077,2.193613,0.404135,9.814395,0.006785,-0.068287,-0.011302,-0.067523,-0.615000,-1.180263,100311.0000
1764075402386522468,2025-11-25 18:26:42.383,0.499461,4.565755,253.659050,0.135399,0.010150,0.975403,1.533959,0.129179,9.614291,0.005305,0.008023,-0.015384,-0.070894,-0.616438,-1.179710,100313.0000
1764075402486023394,2025-11-25 18:26:42.483,0.514531,4.329910,253.708519,0.126587,0.012790,0.973739,1.016803,-0.638792,9.549284,0.000544,0.069234,-0.006990,-0.066084,-0.615949,-1.180270,100310.0000
1764075402586699912,2025-11-25 18:26:42.582,0.522079,3.705582,253.742882,0.104575,0.014567,0.976301,1.043000,0.248963,9.882409,0.000865,0.121850,-0.002865,-0.060295,-0.614470,-1.179414,100314.0000
1764075402685386801,2025-11-25 18:26:42.682,0.520623,2.972037,253.730011,0.066723,0.011014,0.978785,0.338746,-0.226358,9.699835,0.002820,0.122587,0.000843,-0.054058,-0.614960,-1.181425,100307.0000
1764075402785300449,2025-11-25 18:26:42.782,0.519022,2.444402,253.658409,0.029072,0.014182,0.979412,0.437058,0.175543,9.723691,-0.002889,0.073863,0.012698,-0.048801,-0.613615,-1.186820,100311.0000
1764075402886132893,2025-11-25 18:26:42.883,0.519352,2.277854,253.539101,0.011877,0.013099,0.978411,-0.017599,0.000162,9.747836,0.004478,-0.000494,0.034891,-0.048307,-0.612638,-1.185879,100314.0000
1764075402985298653,2025-11-25 18:26:42.982,0.527320,2.432313,253.373337,0.018195,0.013887,0.977514,0.243206,0.506575,9.769984,0.002643,-0.046221,0.037420,-0.053111,-0.612639,-1.184845,100309.0000
1764075403085468134,2025-11-25 18:26:43.082,0.536440,2.740379,253.160599,0.038937,0.014996,0.976549,0.414053,-0.181911,9.701720,0.013802,-0.054890,0.034384,-0.058894,-0.614575,-1.184731,100307.0000
1764075403186090134,2025-11-25 18:26:43.183,0.537303,2.987863,252.904495,0.058031,0.016777,0.977661,0.600186,0.497563,9.675300,0.000850,-0.028250,0.057137,-0.062707,-0.611198,-1.182318,100310.0000
1764075403286126708,2025-11-25 18:26:43.283,0.533618,3.037145,252.623657,0.067456,0.017702,0.976472,0.365024,-0.150731,9.708565,-0.000461,0.013300,0.050657,-0.068489,-0.611244,-1.183196,100314.0000
1764075403385447689,2025-11-25 18:26:43.383,0.529563,2.894319,252.300461,0.062510,0.015671,0.979148,0.251207,0.172994,9.884597,0.011109,0.035080,0.073315,-0.072330,-0.608884,-1.183656,100310.0000
1764075403485377800,2025-11-25 18:26:43.483,0.523757,2.657433,251.952026,0.050532,0.019073,0.978077,0.252120,0.628654,9.609746,0.005796,0.040658,0.062426,-0.072309,-0.606942,-1.182241,100308.0000
1764075403585365911,2025-11-25 18:26:43.582,0.531309,2.453540,251.568787,0.038273,0.017752,0.978698,0.471178,0.126209,9.926335,0.010667,0.031066,0.073825,-0.076186,-0.607976,-1.185058,100307.0000
1764075403685375023,2025-11-25 18:26:43.682,0.545080,2.366836,251.169182,0.028481,0.019864,0.976946,0.197984,0.147608,9.976553,0.001990,-0.003483,0.070275,-0.078115,-0.605637,-1.186992,100305.0000
1764075403785697819,2025-11-25 18:26:43.783,0.554293,2.422644,250.739403,0.027502,0.022616,0.976134,-0.059705,0.305415,9.663726,0.005076,-0.026309,0.086496,-0.084342,-0.603236,-1.185011,100309.0000
1764075403885521115,2025-11-25 18:26:43.882,0.554337,2.579942,250.267212,0.037898,0.020185,0.978817,1.271758,0.009882,10.031217,0.005251,-0.027515,0.083489,-0.093454,-0.600370,-1.182994,100320.0000
1764075403985285985,2025-11-25 18:26:43.982,0.531602,2.757082,249.736488,0.040422,0.022488,0.975133,0.079545,-0.093585,9.625289,0.003608,-0.027571,0.092504,-0.100165,-0.598449,-1.180998,100305.0000
1764075404085718578,2025-11-25 18:26:44.082,0.510915,2.869607,249.177818,0.048082,0.022544,0.975607,0.171524,0.387276,9.524117,0.004251,-0.011858,0.089618,-0.110251,-0.595618,-1.180411,100322.0000
1764075404185555393,2025-11-25 18:26:44.183,0.499590,2.895534,248.602524,0.048165,0.022749,0.974951,-0.119458,0.421427,9.557985,0.002442,-0.010728,0.103449,-0.115513,-0.589432,-1.180429,100310.0000
1764075404285724152,2025-11-25 18:26:44.283,0.494334,2.859526,248.010277,0.047878,0.021105,0.978585,0.989677,0.205569,9.988709,0.003578,0.002022,0.106850,-0.123210,-0.587576,-1.181306,100316.0000
1764075404385183633,2025-11-25 18:26:44.382,0.492426,2.810302,247.386108,0.046702,0.022132,0.978884,0.203946,0.624481,9.648743,0.008061,0.013526,0.112797,-0.130444,-0.585769,-1.184598,100319.0000
1764075404485310615,2025-11-25 18:26:44.482,0.492716,2.811604,246.738380,0.035418,0.024909,0.976410,0.180160,0.378715,9.617234,0.005154,-0.005566,0.108667,-0.136644,-0.582352,-1.179744,100309.0000
1764075404585830096,2025-11-25 18:26:44.582,0.491599,2.886218,246.098694,0.038799,0.021708,0.977804,-0.005395,-0.197621,9.818721,0.006426,-0.013506,0.106191,-0.146280,-0.581958,-1.181534,100309.0000
1764075404685550003,2025-11-25 18:26:44.682,0.496077,3.004208,245.469727,0.045637,0.023404,0.976246,1.425951,0.195039,10.032884,0.011960,-0.025895,0.112915,-0.155872,-0.577204,-1.180502,100309.0000
1764075404785423392,2025-11-25 18:26:44.783,0.506461,3.116527,244.827698,0.053910,0.025614,0.978919,1.253893,0.293898,9.797814,0.004897,-0.015148,0.113372,-0.164513,-0.573422,-1.180433,100307.0000
1764075404885443411,2025-11-25 18:26:44.882,0.510654,3.164147,244.176407,0.052995,0.023332,0.978905,-0.677156,0.226820,9.320406,0.015711,0.007245,0.115736,-0.171224,-0.571500,-1.178437,100305.0000
1764075404986203281,2025-11-25 18:26:44.983,0.505133,3.147225,243.524620,0.054718,0.025608,0.976715,0.449173,0.439450,10.084304,-0.000338,-0.002974,0.115301,-0.177922,-0.565300,-1.177470,100306.0000
1764075405085479448,2025-11-25 18:26:45.082,0.493308,3.088320,242.900528,0.053954,0.025151,0.976564,0.796726,0.080733,9.700620,0.002218,0.021100,0.102638,-0.189460,-0.561084,-1.178810,100317.0000
1764075405185508096,2025-11-25 18:26:45.182,0.475715,3.025601,242.298698,0.047340,0.023276,0.978103,1.594736,0.146025,10.095630,0.004537,0.005156,0.101369,-0.193297,-0.557300,-1.179774,100306.0000
1764075405286075744,2025-11-25 18:26:45.283,0.464007,2.974258,241.698380,0.047458,0.020717,0.978460,0.501326,0.011210,9.485128,0.004089,0.009022,0.121076,-0.200973,-0.553503,-1.179237,100307.0000
1764075405386017651,2025-11-25 18:26:45.383,0.465538,2.961108,241.083961,0.039884,0.021909,0.975117,-0.841368,0.272646,9.206900,0.009148,-0.004517,0.100254,-0.206235,-0.549675,-1.177773,100313.0000
1764075405487258355,2025-11-25 18:26:45.483,0.475379,2.977736,240.472496,0.045064,0.022703,0.977241,0.553747,0.306185,10.341576,0.006711,-0.009397,0.099747,-0.212482,-0.543554,-1.180664,100308.0000
1764075405586152095,2025-11-25 18:26:45.582,0.486117,3.009085,239.882462,0.051226,0.022386,0.978973,0.436768,0.175530,10.301882,0.010870,-0.001621,0.108014,-0.221122,-0.544010,-1.177641,100310.0000
1764075405685568725,2025-11-25 18:26:45.682,0.490178,3.051397,239.304283,0.046911,0.022916,0.976039,-0.112327,0.488589,9.443292,-0.003143,-0.008477,0.115775,-0.227358,-0.537859,-1.179088,100314.0000
1764075405786268299,2025-11-25 18:26:45.783,0.485642,3.088615,238.741707,0.048753,0.021928,0.977293,0.379581,0.333028,9.570618,0.008066,-0.006879,0.090794,-0.232634,-0.536897,-1.177580,100305.0000
1764075405885896373,2025-11-25 18:26:45.882,0.471397,3.094296,238.190216,0.051435,0.022712,0.979398,1.111338,0.063866,9.703505,0.004054,0.013874,0.091621,-0.240767,-0.530683,-1.175629,100310.0000
1764075405985413021,2025-11-25 18:26:45.982,0.450654,3.066440,237.659454,0.052189,0.023126,0.978687,1.367122,0.221772,9.903179,0.008542,0.017090,0.076705,-0.243616,-0.525411,-1.174222,100320.0000
1764075406085696466,2025-11-25 18:26:46.083,0.433757,3.015808,237.144279,0.045854,0.017773,0.976684,1.634500,0.125344,10.096283,0.006293,0.001252,0.102327,-0.252745,-0.522118,-1.174620,100318.0000
1764075406187115095,2025-11-25 18:26:46.183,0.427773,2.966787,236.625526,0.048044,0.019428,0.977349,1.084366,0.259031,9.858567,0.005131,0.004851,0.096033,-0.255640,-0.520739,-1.176525,100314.0000
1764075406286316373,2025-11-25 18:26:46.283,0.430416,2.976463,236.119423,0.036183,0.020550,0.973750,-0.326785,0.329321,9.275032,0.002629,-0.020742,0.089492,-0.259959,-0.516957,-1.177482,100316.0000
1764075406385380743,2025-11-25 18:26:46.382,0.430433,3.035764,235.619370,0.048385,0.019078,0.979726,0.349130,0.268919,9.896588,0.007236,-0.008914,0.087745,-0.266636,-0.511174,-1.173619,100309.0000
1764075406485904817,2025-11-25 18:26:46.482,0.436396,3.095775,235.104050,0.050844,0.018538,0.977690,-0.458555,0.071827,9.641830,0.012929,0.006947,0.087452,-0.273361,-0.507403,-1.174541,100308.0000
1764075406585569854,2025-11-25 18:26:46.582,0.450397,3.122982,234.607452,0.046938,0.023257,0.975939,0.311074,0.503296,10.220269,-0.000362,-0.013706,0.083132,-0.278142,-0.502160,-1.174069,100308.0000
1764075406686652076,2025-11-25 18:26:46.682,0.468192,3.118682,234.134132,0.052838,0.019517,0.977602,0.269842,0.486003,9.512040,0.007974,0.005102,0.092904,-0.285833,-0.502174,-1.172993,100305.0000
1764075406785690113,2025-11-25 18:26:46.782,0.467123,3.109900,233.658234,0.045082,0.020796,0.976690,0.569368,0.334585,9.534704,0.013177,-0.003777,0.079409,-0.288708,-0.498386,-1.173971,100305.0000
1764075406886729021,2025-11-25 18:26:46.883,0.452259,3.106746,233.169655,0.049179,0.020190,0.978207,1.111171,-0.038317,9.807768,-0.000068,0.011158,0.080414,-0.294940,-0.492225,-1.174937,100309.0000
1764075406987027298,2025-11-25 18:26:46.983,0.436112,3.105476,232.686241,0.042832,0.019642,0.977127,1.107263,0.376260,9.575513,0.001637,-0.013244,0.088438,-0.299724,-0.491230,-1.171992,100305.0000
1764075407085421058,2025-11-25 18:26:47.082,0.417330,3.110736,232.220741,0.048092,0.019215,0.978411,0.269212,0.349637,9.535352,0.003296,0.003879,0.086265,-0.301134,-0.483137,-1.173058,100311.0000
1764075407186474428,2025-11-25 18:26:47.182,0.402621,3.112098,231.786499,0.049244,0.017885,0.977278,-0.121930,-0.011099,10.053666,0.010883,0.007722,0.073715,-0.308809,-0.480752,-1.171537,100308.0000
1764075407286417483,2025-11-25 18:26:47.283,0.405216,3.130227,231.374405,0.045726,0.017672,0.974584,0.436272,0.163138,9.905669,0.001978,-0.019808,0.076176,-0.311712,-0.479393,-1.174404,100315.0000
1764075407386399743,2025-11-25 18:26:47.383,0.410383,3.173981,231.001160,0.052737,0.018816,0.979597,1.240879,0.473139,9.866106,0.012745,-0.000192,0.060157,-0.315535,-0.478872,-1.171466,100308.0000
1764075407487554076,2025-11-25 18:26:47.483,0.411114,3.218988,230.659180,0.047868,0.020238,0.976385,0.429036,0.583225,9.256149,-0.002294,-0.011887,0.057187,-0.320788,-0.470775,-1.171512,100305.0000
1764075407586444909,2025-11-25 18:26:47.583,0.414836,3.246023,230.329407,0.057929,0.015880,0.978310,0.256574,-0.434715,9.810000,0.000773,0.009269,0.048469,-0.326556,-0.468900,-1.171938,100298.0000
1764075407685490594,2025-11-25 18:26:47.682,0.406998,3.212344,230.011078,0.053566,0.013292,0.977292,0.260307,-0.187193,9.968843,0.010242,0.018156,0.066152,-0.325580,-0.468388,-1.170515,100301.0000
1764075407785238872,2025-11-25 18:26:47.782,0.399973,3.138083,229.719116,0.046368,0.018810,0.974918,0.253901,1.004260,9.492276,0.004052,0.003533,0.056194,-0.329895,-0.463183,-1.171976,100312.0000
1764075407885535594,2025-11-25 18:26:47.882,0.397749,3.068946,229.465118,0.050441,0.016336,0.977025,0.618922,0.192453,9.850849,-0.006408,0.006866,0.030205,-0.332805,-0.460900,-1.176302,100309.0000
1764075407985602224,2025-11-25 18:26:47.982,0.401906,3.029052,229.210663,0.042692,0.011184,0.978642,0.381304,0.447175,9.758310,-0.001073,0.003183,0.048010,-0.332306,-0.460379,-1.174391,100301.0000
1764075408085809520,2025-11-25 18:26:48.083,0.407100,3.054002,228.960129,0.039953,0.016618,0.975864,-0.460215,0.185832,9.366193,0.000531,-0.014380,0.035301,-0.336131,-0.457032,-1.173423,100314.0000
1764075408186227483,2025-11-25 18:26:48.182,0.409779,3.137807,228.722702,0.047206,0.014628,0.977982,1.254584,-0.024218,10.103905,-0.000354,-0.028647,0.038270,-0.339509,-0.457545,-1.174328,100302.0000
1764075408286005316,2025-11-25 18:26:48.283,0.408802,3.202618,228.516937,0.054059,0.015392,0.978376,0.631133,-0.212852,9.991900,0.002047,-0.002877,0.034705,-0.340440,-0.455110,-1.171944,100302.0000
1764075408386038038,2025-11-25 18:26:48.383,0.408296,3.260599,228.320099,0.052269,0.015537,0.976807,0.550304,-0.015506,9.748514,-0.005041,0.008689,0.034330,-0.345227,-0.453181,-1.169976,100307.0000
1764075408486802112,2025-11-25 18:26:48.483,0.396520,3.266220,228.132462,0.048970,0.013596,0.976104,-0.507711,0.049124,9.212967,0.003902,-0.008601,0.044704,-0.346670,-0.453187,-1.169955,100316.0000
1764075408586220149,2025-11-25 18:26:48.583,0.398636,3.227740,227.966095,0.056594,0.011703,0.978342,1.351207,-0.004979,10.107074,-0.001875,-0.002212,0.032935,-0.345724,-0.449453,-1.174360,100307.0000
1764075408686546168,2025-11-25 18:26:48.683,0.419697,3.151304,227.832642,0.055209,0.014272,0.979935,0.754927,0.111126,9.947143,0.006932,0.022590,0.015809,-0.348099,-0.447969,-1.171458,100307.0000
1764075408786441094,2025-11-25 18:26:48.783,0.429067,3.063781,227.725662,0.042503,0.014767,0.976725,-0.264791,0.357582,9.344917,-0.000721,0.011238,0.017991,-0.348593,-0.447535,-1.173384,100303.0000
1764075408885602075,2025-11-25 18:26:48.882,0.418809,3.007779,227.638596,0.038930,0.011685,0.975810,-0.295560,-0.043508,9.574659,0.001390,-0.003357,0.017840,-0.350020,-0.445610,-1.172429,100311.0000
1764075408986027371,2025-11-25 18:26:48.983,0.387860,2.994999,227.539566,0.043167,0.014015,0.977337,0.664821,0.322381,9.881922,-0.003035,-0.003931,0.019710,-0.347125,-0.445577,-1.171509,100311.0000
1764075409085683519,2025-11-25 18:26:49.082,0.357048,2.990327,227.459137,0.047393,0.010033,0.979317,0.610487,0.152106,9.986676,-0.001159,-0.001315,0.014626,-0.351954,-0.446117,-1.173356,100305.0000
1764075409185702649,2025-11-25 18:26:49.182,0.340489,2.980366,227.420166,0.044733,0.008558,0.977944,0.505389,-0.151051,9.894109,0.003647,0.006259,0.010130,-0.351458,-0.442303,-1.173903,100303.0000
1764075409286224112,2025-11-25 18:26:49.283,0.351519,2.947994,227.401108,0.039473,0.007859,0.976175,0.265311,0.162131,9.620190,0.006136,0.005286,0.006894,-0.349055,-0.443715,-1.173436,100309.0000
1764075409385631797,2025-11-25 18:26:49.382,0.381658,2.896358,227.392593,0.039569,0.009141,0.978357,0.422207,0.316160,9.649827,0.010685,0.009746,0.006034,-0.351926,-0.441330,-1.172948,100313.0000
1764075409486447889,2025-11-25 18:26:49.483,0.403824,2.838985,227.405579,0.040583,0.010525,0.977954,0.614218,0.243967,9.866448,0.000673,0.008348,-0.002476,-0.349557,-0.444714,-1.175340,100308.0000
1764075409587720426,2025-11-25 18:26:49.583,0.406020,2.810818,227.441833,0.039477,0.009926,0.978931,0.249821,-0.087575,9.740113,0.003713,0.006079,-0.004915,-0.349547,-0.444216,-1.174384,100306.0000
1764075409685927278,2025-11-25 18:26:49.683,0.393245,2.802273,227.497955,0.039536,0.009739,0.977444,0.191445,0.018736,9.633537,-0.007114,-0.002420,-0.014146,-0.347144,-0.445628,-1.173916,100314.0000
1764075409786473686,2025-11-25 18:26:49.783,0.373190,2.800828,227.558304,0.040828,0.007033,0.976556,0.782772,0.208935,9.796773,-0.003501,-0.001943,-0.010617,-0.349087,-0.444742,-1.176791,100305.0000
1764075409885430278,2025-11-25 18:26:49.882,0.358349,2.784141,227.616287,0.039903,0.005822,0.977751,0.437685,0.111701,9.890189,-0.007007,0.004598,-0.011286,-0.345710,-0.445174,-1.175389,100315.0000
1764075409985236426,2025-11-25 18:26:49.982,0.360465,2.766595,227.688812,0.036553,0.005189,0.976751,0.155507,-0.188620,9.586287,-0.001530,-0.002642,-0.010135,-0.346676,-0.446601,-1.174872,100316.0000
1764075410086099815,2025-11-25 18:26:50.082,0.369438,2.751374,227.785355,0.039753,0.007303,0.977788,0.581919,0.183968,9.831101,-0.001862,0.002564,-0.021717,-0.343330,-0.448060,-1.176825,100307.0000
1764075410185245908,2025-11-25 18:26:50.182,0.383794,2.722038,227.894882,0.038769,0.006417,0.977716,0.235318,-0.053075,9.665545,-0.000259,0.004332,-0.024952,-0.344772,-0.448534,-1.176315,100304.0000
1764075410286256593,2025-11-25 18:26:50.283,0.387398,2.671807,228.018311,0.039099,0.007684,0.978682,0.569331,0.062739,9.813292,0.010144,0.007952,-0.028884,-0.340453,-0.449958,-1.176838,100318.0000
1764075410385407963,2025-11-25 18:26:50.382,0.383219,2.613557,228.164154,0.032497,0.006617,0.977850,0.096977,0.138371,9.624549,-0.004696,0.003567,-0.029346,-0.340472,-0.450009,-1.179245,100310.0000
1764075410486288278,2025-11-25 18:26:50.482,0.369900,2.596521,228.341827,0.033286,0.005451,0.977634,0.338434,0.042088,9.660078,-0.000212,0.000857,-0.024650,-0.339994,-0.452842,-1.177764,100299.0000
1764075410586190722,2025-11-25 18:26:50.582,0.366385,2.613672,228.526749,0.034423,0.004561,0.978299,0.460495,-0.008544,9.805378,0.002575,-0.005494,-0.033653,-0.338545,-0.453293,-1.176815,100304.0000
1764075410685324852,2025-11-25 18:26:50.682,0.382290,2.640207,228.715408,0.036793,0.005061,0.978606,0.192192,0.143899,9.722320,-0.001596,-0.008823,-0.040292,-0.336156,-0.456626,-1.176800,100307.0000
1764075410785729018,2025-11-25 18:26:50.783,0.391038,2.674008,228.919067,0.039439,0.004360,0.977995,0.378236,-0.241620,9.784197,-0.000999,-0.004558,-0.041079,-0.334238,-0.457105,-1.177302,100312.0000
1764075410885882907,2025-11-25 18:26:50.882,0.397794,2.670456,229.130493,0.041596,0.005211,0.977688,0.422796,-0.070719,9.729206,0.000071,0.000780,-0.038979,-0.330857,-0.458472,-1.174923,100302.0000
1764075410986757759,2025-11-25 18:26:50.983,0.393854,2.644689,229.328232,0.037444,0.003495,0.976492,0.457669,-0.148158,9.762586,0.000030,0.001925,-0.032290,-0.326567,-0.461857,-1.177824,100306.0000
1764075411086504277,2025-11-25 18:26:51.083,0.392209,2.598933,229.526855,0.037608,0.004730,0.977971,0.177321,-0.387978,9.759204,0.002949,0.006736,-0.034424,-0.327533,-0.461872,-1.178291,100309.0000
1764075411186088592,2025-11-25 18:26:51.183,0.392337,2.571796,229.752686,0.034592,0.005580,0.978209,0.414301,0.124331,9.848442,0.003343,0.002621,-0.034761,-0.326094,-0.464233,-1.177313,100304.0000
1764075411286402388,2025-11-25 18:26:51.283,0.399903,2.586698,230.004745,0.033666,0.005221,0.977632,0.125918,-0.037624,9.544030,-0.007193,-0.004033,-0.050907,-0.322742,-0.465204,-1.178792,100304.0000
1764075411386107018,2025-11-25 18:26:51.383,0.415996,2.656002,230.278427,0.034554,0.003926,0.976919,0.420364,-0.007417,9.777546,0.005830,-0.019325,-0.041772,-0.320819,-0.468499,-1.176844,100302.0000
1764075411485850166,2025-11-25 18:26:51.483,0.426900,2.745399,230.570251,0.040609,0.004679,0.977599,0.063693,-0.085210,9.720586,-0.011034,-0.015756,-0.056752,-0.318901,-0.472281,-1.175370,100306.0000
1764075411585944314,2025-11-25 18:26:51.582,0.442347,2.788891,230.862244,0.045762,0.004452,0.978585,0.684714,0.078064,9.827927,-0.006523,-0.006213,-0.046008,-0.316979,-0.474162,-1.174406,100314.0000
1764075411685250518,2025-11-25 18:26:51.682,0.450449,2.760720,231.166458,0.044957,0.005834,0.977502,0.513995,0.182314,9.710090,0.000239,0.006792,-0.049869,-0.311716,-0.477045,-1.176366,100310.0000
1764075411785438499,2025-11-25 18:26:51.782,0.444763,2.702464,231.495148,0.040899,0.005478,0.977669,0.475610,0.022318,9.840650,-0.007110,0.010214,-0.067807,-0.309304,-0.476547,-1.175928,100307.0000
1764075411885663184,2025-11-25 18:26:51.882,0.432323,2.649212,231.836227,0.037470,0.003340,0.976844,0.727011,0.076392,9.926199,-0.004098,0.008255,-0.051000,-0.306469,-0.482327,-1.178771,100303.0000
1764075411985833536,2025-11-25 18:26:51.983,0.433190,2.643047,232.149704,0.031857,-0.000048,0.976177,0.335772,0.047893,9.688438,0.003290,-0.009183,-0.047129,-0.303094,-0.485594,-1.175881,100318.0000
1764075412085466888,2025-11-25 18:26:52.082,0.436576,2.675502,232.457817,0.034590,0.004073,0.978706,0.416294,0.228633,9.746499,0.002876,-0.004203,-0.051680,-0.299766,-0.487572,-1.179753,100307.0000
1764075412185497666,2025-11-25 18:26:52.182,0.437885,2.754760,232.775337,0.036353,0.004545,0.978671,0.599584,0.096734,9.744820,0.000011,-0.019749,-0.064421,-0.296388,-0.490829,-1.176382,100310.0000
1764075412285289666,2025-11-25 18:26:52.282,0.432090,2.852448,233.082848,0.044009,0.001762,0.978646,0.349775,-0.192289,9.686881,-0.004282,-0.011310,-0.035249,-0.295446,-0.494179,-1.176826,100307.0000
1764075412386037369,2025-11-25 18:26:52.383,0.430738,2.905759,233.364342,0.049494,0.003169,0.977667,0.605407,0.328213,9.838519,-0.000116,-0.004495,-0.045635,-0.292081,-0.495586,-1.176372,100310.0000
1764075412485420443,2025-11-25 18:26:52.482,0.435903,2.872628,233.652840,0.050432,0.003890,0.977071,0.403484,0.153426,9.718176,-0.001397,0.008985,-0.051248,-0.288249,-0.498913,-1.176378,100301.0000
1764075412585499406,2025-11-25 18:26:52.582,0.443662,2.806882,233.932327,0.044697,0.004436,0.976285,0.465689,0.237537,9.851912,-0.000823,0.012907,-0.041305,-0.285842,-0.499369,-1.175925,100310.0000
1764075412685289425,2025-11-25 18:26:52.682,0.452514,2.729466,234.210724,0.040772,0.002899,0.977703,0.281247,0.009466,9.717754,0.002976,0.008752,-0.053493,-0.282490,-0.501753,-1.176419,100304.0000
1764075412785547425,2025-11-25 18:26:52.783,0.469773,2.703562,234.454445,0.037610,0.004778,0.978331,0.483851,0.202526,9.867092,-0.000027,-0.005116,-0.042152,-0.278164,-0.500331,-1.177949,100305.0000
1764075412885408943,2025-11-25 18:26:52.882,0.481568,2.718578,234.694183,0.036814,0.006453,0.979093,0.438722,0.252598,9.881495,0.005892,-0.009369,-0.046411,-0.276759,-0.504197,-1.180319,100310.0000
1764075412985278813,2025-11-25 18:26:52.982,0.486304,2.768323,234.950249,0.041274,0.005741,0.978421,0.565313,0.138270,9.942742,-0.002286,-0.016014,-0.041496,-0.274849,-0.508000,-1.179808,100315.0000
1764075413085898480,2025-11-25 18:26:53.083,0.490878,2.830246,235.209778,0.045553,0.006075,0.977722,0.399157,0.011213,9.700275,0.002503,-0.005175,-0.051530,-0.271940,-0.506513,-1.177947,100312.0000
1764075413185658258,2025-11-25 18:26:53.182,0.487690,2.870475,235.467697,0.045129,0.005633,0.976463,0.581966,0.119993,9.831660,0.001131,-0.002373,-0.035964,-0.271969,-0.513190,-1.177363,100312.0000
1764075413286667517,2025-11-25 18:26:53.283,0.487004,2.865902,235.716316,0.045619,0.004978,0.976878,0.355324,-0.093756,9.699621,-0.002198,0.002657,-0.032404,-0.266690,-0.512729,-1.179374,100305.0000
1764075413385863258,2025-11-25 18:26:53.382,0.494074,2.817657,235.939842,0.045887,0.004320,0.978146,0.622073,0.039789,9.880279,0.004500,0.002213,-0.037395,-0.263330,-0.516037,-1.178410,100301.0000
1764075413486199239,2025-11-25 18:26:53.482,0.512559,2.768074,236.148354,0.040761,0.005206,0.978042,0.225576,-0.007576,9.747047,-0.006987,0.004086,-0.040021,-0.262854,-0.516991,-1.178402,100303.0000
1764075413586191146,2025-11-25 18:26:53.582,0.525227,2.736344,236.342690,0.041603,0.007211,0.977645,0.459728,-0.021039,9.706199,0.000148,0.001531,-0.024536,-0.258039,-0.516959,-1.177992,100308.0000
1764075413686411646,2025-11-25 18:26:53.682,0.521043,2.712897,236.505135,0.041384,0.007061,0.978117,0.342057,-0.046366,9.787908,-0.004236,-0.003576,-0.023097,-0.256614,-0.518416,-1.179436,100303.0000
1764075413786276350,2025-11-25 18:26:53.783,0.518997,2.700203,236.632660,0.040365,0.007195,0.978040,0.479094,0.218482,9.757278,-0.000609,-0.002866,-0.019692,-0.257576,-0.519833,-1.178437,100310.0000
1764075413886298257,2025-11-25 18:26:53.883,0.506350,2.722438,236.762733,0.039583,0.007564,0.977779,0.378702,-0.257934,9.713058,-0.001898,-0.006263,-0.020005,-0.254236,-0.523192,-1.179879,100302.0000
1764075413986209590,2025-11-25 18:26:53.983,0.494982,2.757304,236.875824,0.043430,0.007624,0.977202,0.186469,0.076791,9.675441,-0.001370,-0.004285,-0.019241,-0.252302,-0.521273,-1.179937,100305.0000
1764075414086287831,2025-11-25 18:26:54.083,0.504157,2.788003,236.962639,0.042956,0.004432,0.977019,0.515645,0.025653,9.781075,0.006290,-0.006507,-0.011106,-0.253266,-0.523167,-1.178931,100312.0000
1764075414185944868,2025-11-25 18:26:54.182,0.526350,2.785587,237.039383,0.042969,0.006008,0.975961,0.162881,0.055723,9.581050,0.005388,-0.007429,-0.001915,-0.253742,-0.522214,-1.178938,100310.0000
1764075414286490961,2025-11-25 18:26:54.283,0.549159,2.801597,237.107956,0.043907,0.011300,0.977771,0.596744,-0.005246,9.943541,0.001303,-0.009129,-0.021873,-0.248459,-0.525514,-1.178002,100310.0000
1764075414385983683,2025-11-25 18:26:54.382,0.552252,2.844878,237.162666,0.044413,0.010573,0.978642,0.760468,0.310505,9.833737,-0.006720,-0.010152,-0.009735,-0.251835,-0.525549,-1.178915,100305.0000
1764075414486564535,2025-11-25 18:26:54.483,0.533775,2.874249,237.211670,0.046539,0.008343,0.978532,0.507902,-0.118830,9.718735,0.002136,-0.002495,-0.013316,-0.250859,-0.525982,-1.176997,100298.0000
1764075414586479905,2025-11-25 18:26:54.583,0.506038,2.884819,237.274651,0.047734,0.009318,0.978324,0.394702,0.145766,9.707956,0.000366,-0.000346,0.000567,-0.250857,-0.524092,-1.177989,100304.0000
1764075414685499146,2025-11-25 18:26:54.682,0.492537,2.905595,237.353584,0.049385,0.007985,0.977389,0.360069,0.029263,9.791972,-0.001420,0.000164,-0.021779,-0.250860,-0.524569,-1.177981,100305.0000
1764075414786795701,2025-11-25 18:26:54.783,0.503206,2.922333,237.435547,0.047067,0.005227,0.975471,0.442388,0.032526,9.731854,0.009995,-0.008474,-0.018979,-0.249434,-0.527439,-1.178440,100308.0000
1764075414885256423,2025-11-25 18:26:54.882,0.528976,2.923791,237.532074,0.048190,0.006857,0.975260,0.242457,0.051673,9.591370,0.005748,-0.005457,-0.007433,-0.247485,-0.525479,-1.176572,100307.0000
1764075414985544997,2025-11-25 18:26:54.982,0.565585,2.936427,237.640724,0.046561,0.010153,0.976928,0.259239,0.350701,9.684492,0.002832,-0.006438,-0.026746,-0.247512,-0.527908,-1.178461,100304.0000
1764075415085467405,2025-11-25 18:26:55.082,0.586110,2.959862,237.754570,0.046648,0.009775,0.979064,0.863527,0.235038,9.985868,-0.007200,-0.005817,-0.015464,-0.247496,-0.526922,-1.177032,100306.0000
